rt,response,trial_type,trial_index,time_elapsed,internal_node_id,correct,stimulus,slider_start,accuracy,participant_id,ctime
3177,"{""Q0"":""Susan""}",survey-text,0,3189,0.0-0.0-0.0,TRUE,NA,NA,NA,c6091023-9500-4461-bcf7-ce9dd7cdbcc9,2024-09-13 16:47:57 CEST
960,0,html-button-response,1,4152,0.0-0.0-3.0-0.0,NA,<p style='text-align:left'><b> Correct response! You are a human :) </b><br><br></p>,NA,NA,c6091023-9500-4461-bcf7-ce9dd7cdbcc9,2024-09-13 16:47:57 CEST
18004,0,html-button-response,2,22159,0.0-1.0,NA,"<h3>Welcome!</h3>  <p style='text-align:left'>Please read the following instructions carefully.</p>  <p style='text-align:left'>In this experiment, you will read 13 statements followed by a question, as in the example below:</p>  <div style='display: flex; justify-content: center;'>    <div style='white-space: nowrap; text-align: left;'>      <p style='text-align:left'> <i>Robin didn't believe that the table wobbled.</i> </p>      <p style='text-align:left'> According to this statement, did the table wobble? </p>    </div>  </div>  <p style='text-align:left'>To answer the question, you will use a slider marked 'no' at one end and 'yes' at the other.</p>  <p style='text-align:left'>The experiment will take about 2.5 minutes and you will be paid £0.39.</p>  <p style='text-align:left' font size=""1"">By clicking the button below, you agree to participate in this experiment conducted by researchers at the University of Stuttgart. You may withdraw from the experiment at any time. The data collected will be anonymous and confidential. If you have any questions, you can contact the requester through Prolific or by writing directly to st166874@stud.uni-stuttgart.de.</p>",NA,NA,c6091023-9500-4461-bcf7-ce9dd7cdbcc9,2024-09-13 16:47:57 CEST
1867,76,html-slider-response,3,24029,0.0-2.0-0.0,NA,"<i>Reese didn't complain that the balloon popped.</i> <br> <br> According to this statement, did the balloon pop?",50,NA,c6091023-9500-4461-bcf7-ce9dd7cdbcc9,2024-09-13 16:47:57 CEST
1218,37,html-slider-response,4,25250,0.0-2.0-0.1,NA,"<i>Charlie didn't shriek that the computer restarted.</i> <br> <br> According to this statement, did the computer restart?",50,NA,c6091023-9500-4461-bcf7-ce9dd7cdbcc9,2024-09-13 16:47:57 CEST
1827,62,html-slider-response,5,27079,0.0-2.0-0.2,NA,"<i>Frankie didn't state that the paper burned.</i> <br> <br> According to this statement, did the paper burn?",50,NA,c6091023-9500-4461-bcf7-ce9dd7cdbcc9,2024-09-13 16:47:57 CEST
1361,38,html-slider-response,6,28443,0.0-2.0-0.3,NA,"<i>Morgan didn't relate that the room darkened.</i> <br> <br> According to this statement, did the room darken?",50,NA,c6091023-9500-4461-bcf7-ce9dd7cdbcc9,2024-09-13 16:47:57 CEST
1747,59,html-slider-response,7,30192,0.0-2.0-0.4,NA,"<i>Jordan didn't shout that the sauce thickened.</i> <br> <br> According to this statement, did the sauce thicken?",50,NA,c6091023-9500-4461-bcf7-ce9dd7cdbcc9,2024-09-13 16:47:57 CEST
1810,29,html-slider-response,8,32005,0.0-2.0-0.5,NA,"<i>Blake didn't discuss that the bolt loosened.</i> <br> <br> According to this statement, did the bolt loosen?",50,NA,c6091023-9500-4461-bcf7-ce9dd7cdbcc9,2024-09-13 16:47:57 CEST
1403,63,html-slider-response,9,33410,0.0-2.0-0.6,NA,"<i>Alex didn't fall when the cane broke.</i> <br> <br> According to this statement, did the cane break?",50,NA,c6091023-9500-4461-bcf7-ce9dd7cdbcc9,2024-09-13 16:47:57 CEST
1817,34,html-slider-response,10,35229,0.0-2.0-0.7,NA,"<i>Dylan didn't underscore that the knot tightened.</i> <br> <br> According to this statement, did the knot tighten?",50,NA,c6091023-9500-4461-bcf7-ce9dd7cdbcc9,2024-09-13 16:47:57 CEST
1405,63,html-slider-response,11,36635,0.0-2.0-0.8,NA,"<i>Evan didn't lie that the airbag deployed.</i> <br> <br> According to this statement, did the airbag deploy?",50,NA,c6091023-9500-4461-bcf7-ce9dd7cdbcc9,2024-09-13 16:47:57 CEST
1540,36,html-slider-response,12,38177,0.0-2.0-0.9,NA,"<i>Stevie didn't flaunt that the gate opened.</i> <br> <br> According to this statement, did the gate open?",50,NA,c6091023-9500-4461-bcf7-ce9dd7cdbcc9,2024-09-13 16:47:57 CEST
1578,61,html-slider-response,13,39757,0.0-2.0-0.10,NA,"<i>Taylor smiled when the vase didn't shatter.</i> <br> <br> According to this statement, did the vase shatter?",50,NA,c6091023-9500-4461-bcf7-ce9dd7cdbcc9,2024-09-13 16:47:57 CEST
1602,32,html-slider-response,14,41361,0.0-2.0-0.11,NA,"<i>Harper didn't indicate that the factory closed.</i> <br> <br> According to this statement, did the factory close?",50,NA,c6091023-9500-4461-bcf7-ce9dd7cdbcc9,2024-09-13 16:47:57 CEST
1595,57,html-slider-response,15,42957,0.0-2.0-0.12,NA,"<i>Jamie didn't leak that the egg cracked.</i> <br> <br> According to this statement, did the egg crack?",50,NA,c6091023-9500-4461-bcf7-ce9dd7cdbcc9,2024-09-13 16:47:57 CEST
2651,"{""P0_Q0"":null,""age"":"""",""gender"":"""",""language"":"""",""AE"":"""",""comments"":""""}",survey,16,45642,0.0-3.0,NA,NA,NA,[],c6091023-9500-4461-bcf7-ce9dd7cdbcc9,2024-09-13 16:47:57 CEST
26126,"{""Q0"":""Linda""}",survey-text,0,26140,0.0-0.0-0.0,TRUE,NA,NA,NA,7bc883a7-83c8-4437-b4c9-3147a8ccbe28,2024-09-14 15:17:59 CEST
2088,0,html-button-response,1,28230,0.0-0.0-3.0-0.0,NA,<p style='text-align:left'><b> Correct response! You are a human :) </b><br><br></p>,NA,NA,7bc883a7-83c8-4437-b4c9-3147a8ccbe28,2024-09-14 15:17:59 CEST
11385,0,html-button-response,2,39616,0.0-1.0,NA,"<h3>Welcome!</h3>  <p style='text-align:left'>Please read the following instructions carefully.</p>  <p style='text-align:left'>In this experiment, you will read 13 statements followed by a question, as in the example below:</p>  <div style='display: flex; justify-content: center;'>    <div style='white-space: nowrap; text-align: left;'>      <p style='text-align:left'> <i>Robin didn't believe that the table wobbled.</i> </p>      <p style='text-align:left'> According to this statement, did the table wobble? </p>    </div>  </div>  <p style='text-align:left'>To answer the question, you will use a slider marked 'no' at one end and 'yes' at the other.</p>  <p style='text-align:left'>The experiment will take about 2.5 minutes and you will be paid £0.39.</p>  <p style='text-align:left' font size=""1"">By clicking the button below, you agree to participate in this experiment conducted by researchers at the University of Stuttgart. You may withdraw from the experiment at any time. The data collected will be anonymous and confidential. If you have any questions, you can contact the requester through Prolific or by writing directly to st166874@stud.uni-stuttgart.de.</p>",NA,NA,7bc883a7-83c8-4437-b4c9-3147a8ccbe28,2024-09-14 15:17:59 CEST
6288,36,html-slider-response,3,45906,0.0-2.0-0.0,NA,"<i>Stevie didn't embellish that the computer restarted.</i> <br> <br> According to this statement, did the computer restart?",50,NA,7bc883a7-83c8-4437-b4c9-3147a8ccbe28,2024-09-14 15:17:59 CEST
4011,33,html-slider-response,4,49918,0.0-2.0-0.1,NA,"<i>Charlie didn't summarize that the paper burned.</i> <br> <br> According to this statement, did the paper burn?",50,NA,7bc883a7-83c8-4437-b4c9-3147a8ccbe28,2024-09-14 15:17:59 CEST
6177,90,html-slider-response,5,56097,0.0-2.0-0.2,NA,"<i>Evan didn't mention that the bolt loosened.</i> <br> <br> According to this statement, did the bolt loosen?",50,NA,7bc883a7-83c8-4437-b4c9-3147a8ccbe28,2024-09-14 15:17:59 CEST
4805,0,html-slider-response,6,60902,0.0-2.0-0.3,NA,"<i>Taylor smiled when the vase didn't shatter.</i> <br> <br> According to this statement, did the vase shatter?",50,NA,7bc883a7-83c8-4437-b4c9-3147a8ccbe28,2024-09-14 15:17:59 CEST
4765,50,html-slider-response,7,65668,0.0-2.0-0.4,NA,"<i>Jamie didn't scribble that the egg cracked.</i> <br> <br> According to this statement, did the egg crack?",50,NA,7bc883a7-83c8-4437-b4c9-3147a8ccbe28,2024-09-14 15:17:59 CEST
4429,100,html-slider-response,8,70099,0.0-2.0-0.5,NA,"<i>Alex didn't fall when the cane broke.</i> <br> <br> According to this statement, did the cane break?",50,NA,7bc883a7-83c8-4437-b4c9-3147a8ccbe28,2024-09-14 15:17:59 CEST
9293,65,html-slider-response,9,79393,0.0-2.0-0.6,NA,"<i>Morgan didn't advertise that the gate opened.</i> <br> <br> According to this statement, did the gate open?",50,NA,7bc883a7-83c8-4437-b4c9-3147a8ccbe28,2024-09-14 15:17:59 CEST
3861,91,html-slider-response,10,83255,0.0-2.0-0.7,NA,"<i>Blake didn't gush that the knot tightened.</i> <br> <br> According to this statement, did the knot tighten?",50,NA,7bc883a7-83c8-4437-b4c9-3147a8ccbe28,2024-09-14 15:17:59 CEST
5286,52,html-slider-response,11,88542,0.0-2.0-0.8,NA,"<i>Dylan didn't holler that the factory closed.</i> <br> <br> According to this statement, did the factory close?",50,NA,7bc883a7-83c8-4437-b4c9-3147a8ccbe28,2024-09-14 15:17:59 CEST
4093,34,html-slider-response,12,92635,0.0-2.0-0.9,NA,"<i>Jordan didn't exhibit that the sauce thickened.</i> <br> <br> According to this statement, did the sauce thicken?",50,NA,7bc883a7-83c8-4437-b4c9-3147a8ccbe28,2024-09-14 15:17:59 CEST
7405,70,html-slider-response,13,100042,0.0-2.0-0.10,NA,"<i>Frankie didn't blog that the room darkened.</i> <br> <br> According to this statement, did the room darken?",50,NA,7bc883a7-83c8-4437-b4c9-3147a8ccbe28,2024-09-14 15:17:59 CEST
5187,50,html-slider-response,14,105230,0.0-2.0-0.11,NA,"<i>Harper didn't repeat that the balloon popped.</i> <br> <br> According to this statement, did the balloon pop?",50,NA,7bc883a7-83c8-4437-b4c9-3147a8ccbe28,2024-09-14 15:17:59 CEST
10365,50,html-slider-response,15,115596,0.0-2.0-0.12,NA,"<i>Reese didn't corroborate that the airbag deployed.</i> <br> <br> According to this statement, did the airbag deploy?",50,NA,7bc883a7-83c8-4437-b4c9-3147a8ccbe28,2024-09-14 15:17:59 CEST
49780,"{""P0_Q0"":null,""age"":""1234"",""gender"":""other"",""gender-Comment"":""green"",""language"":""no"",""AE"":""no"",""comments"":""YK""}",survey,16,165424,0.0-3.0,NA,NA,NA,[],7bc883a7-83c8-4437-b4c9-3147a8ccbe28,2024-09-14 15:17:59 CEST
12224,"{""Q0"":""Elizabeth""}",survey-text,0,12272,0.0-0.0-0.0,TRUE,NA,NA,NA,81d9a83f-c0cc-4508-95ea-9e176f006e52,2024-09-14 15:32:06 CEST
1406,0,html-button-response,1,13679,0.0-0.0-3.0-0.0,NA,<p style='text-align:left'><b> Correct response! You are a human :) </b><br><br></p>,NA,NA,81d9a83f-c0cc-4508-95ea-9e176f006e52,2024-09-14 15:32:06 CEST
5606,0,html-button-response,2,19285,0.0-1.0,NA,"<h3>Welcome!</h3>  <p style='text-align:left'>Please read the following instructions carefully.</p>  <p style='text-align:left'>In this experiment, you will read 13 statements followed by a question, as in the example below:</p>  <div style='display: flex; justify-content: center;'>    <div style='white-space: nowrap; text-align: left;'>      <p style='text-align:left'> <i>Robin didn't believe that the table wobbled.</i> </p>      <p style='text-align:left'> According to this statement, did the table wobble? </p>    </div>  </div>  <p style='text-align:left'>To answer the question, you will use a slider marked 'no' at one end and 'yes' at the other.</p>  <p style='text-align:left'>The experiment will take about 2.5 minutes and you will be paid £0.39.</p>  <p style='text-align:left' font size=""1"">By clicking the button below, you agree to participate in this experiment conducted by researchers at the University of Stuttgart. You may withdraw from the experiment at any time. The data collected will be anonymous and confidential. If you have any questions, you can contact the requester through Prolific or by writing directly to st166874@stud.uni-stuttgart.de.</p>",NA,NA,81d9a83f-c0cc-4508-95ea-9e176f006e52,2024-09-14 15:32:06 CEST
8742,100,html-slider-response,3,28028,0.0-2.0-0.0,NA,"<i>Blake didn't explain that the gate opened.</i> <br> <br> According to this statement, did the gate open?",50,NA,81d9a83f-c0cc-4508-95ea-9e176f006e52,2024-09-14 15:32:06 CEST
5822,100,html-slider-response,4,33849,0.0-2.0-0.1,NA,"<i>Alex didn't fall when the cane broke.</i> <br> <br> According to this statement, did the cane break?",50,NA,81d9a83f-c0cc-4508-95ea-9e176f006e52,2024-09-14 15:32:06 CEST
6705,100,html-slider-response,5,40554,0.0-2.0-0.2,NA,"<i>Stevie didn't warn that the bolt loosened.</i> <br> <br> According to this statement, did the bolt loosen?",50,NA,81d9a83f-c0cc-4508-95ea-9e176f006e52,2024-09-14 15:32:06 CEST
6360,100,html-slider-response,6,46915,0.0-2.0-0.3,NA,"<i>Jamie didn't stipulate that the sauce thickened.</i> <br> <br> According to this statement, did the sauce thicken?",50,NA,81d9a83f-c0cc-4508-95ea-9e176f006e52,2024-09-14 15:32:06 CEST
4937,100,html-slider-response,7,51852,0.0-2.0-0.4,NA,"<i>Harper didn't assert that the computer restarted.</i> <br> <br> According to this statement, did the computer restart?",50,NA,81d9a83f-c0cc-4508-95ea-9e176f006e52,2024-09-14 15:32:06 CEST
4133,0,html-slider-response,8,55986,0.0-2.0-0.5,NA,"<i>Taylor smiled when the vase didn't shatter.</i> <br> <br> According to this statement, did the vase shatter?",50,NA,81d9a83f-c0cc-4508-95ea-9e176f006e52,2024-09-14 15:32:06 CEST
5426,100,html-slider-response,9,61413,0.0-2.0-0.6,NA,"<i>Morgan didn't know that the factory closed.</i> <br> <br> According to this statement, did the factory close?",50,NA,81d9a83f-c0cc-4508-95ea-9e176f006e52,2024-09-14 15:32:06 CEST
7965,100,html-slider-response,10,69379,0.0-2.0-0.7,NA,"<i>Jordan didn't establish that the egg cracked.</i> <br> <br> According to this statement, did the egg crack?",50,NA,81d9a83f-c0cc-4508-95ea-9e176f006e52,2024-09-14 15:32:06 CEST
3351,100,html-slider-response,11,72729,0.0-2.0-0.8,NA,"<i>Evan didn't embellish that the paper burned.</i> <br> <br> According to this statement, did the paper burn?",50,NA,81d9a83f-c0cc-4508-95ea-9e176f006e52,2024-09-14 15:32:06 CEST
4251,100,html-slider-response,12,76981,0.0-2.0-0.9,NA,"<i>Frankie didn't proclaim that the room darkened.</i> <br> <br> According to this statement, did the room darken?",50,NA,81d9a83f-c0cc-4508-95ea-9e176f006e52,2024-09-14 15:32:06 CEST
4948,100,html-slider-response,13,81931,0.0-2.0-0.10,NA,"<i>Charlie didn't underline that the knot tightened.</i> <br> <br> According to this statement, did the knot tighten?",50,NA,81d9a83f-c0cc-4508-95ea-9e176f006e52,2024-09-14 15:32:06 CEST
13522,50,html-slider-response,14,95453,0.0-2.0-0.11,NA,"<i>Reese didn't bicker that the airbag deployed.</i> <br> <br> According to this statement, did the airbag deploy?",50,NA,81d9a83f-c0cc-4508-95ea-9e176f006e52,2024-09-14 15:32:06 CEST
5403,100,html-slider-response,15,100857,0.0-2.0-0.12,NA,"<i>Dylan didn't quarrel that the balloon popped.</i> <br> <br> According to this statement, did the balloon pop?",50,NA,81d9a83f-c0cc-4508-95ea-9e176f006e52,2024-09-14 15:32:06 CEST
15547,"{""P0_Q0"":null,""age"":""21"",""gender"":""male"",""language"":""yes"",""AE"":""yes"",""comments"":""""}",survey,16,116431,0.0-3.0,NA,NA,NA,[],81d9a83f-c0cc-4508-95ea-9e176f006e52,2024-09-14 15:32:06 CEST
14084,"{""Q0"":""jessoca""}",survey-text,0,14098,0.0-0.0-0.0,FALSE,NA,NA,NA,237cb5f0-49d0-421f-8b03-601dbaa9e6c2,2024-09-14 15:34:52 CEST
2036,0,html-button-response,1,16136,0.0-0.0-1.0-0.0,NA,<p style='text-align:left'><b> Incorrect response! Please try again. </b><br><br></p>,NA,NA,237cb5f0-49d0-421f-8b03-601dbaa9e6c2,2024-09-14 15:34:52 CEST
12239,"{""Q0"":""patricia""}",survey-text,2,28377,0.0-0.0-1.0-1.0,TRUE,NA,NA,NA,237cb5f0-49d0-421f-8b03-601dbaa9e6c2,2024-09-14 15:34:52 CEST
1717,0,html-button-response,3,30095,0.0-0.0-3.0-0.0,NA,<p style='text-align:left'><b> Correct response! You are a human :) </b><br><br></p>,NA,NA,237cb5f0-49d0-421f-8b03-601dbaa9e6c2,2024-09-14 15:34:52 CEST
14395,0,html-button-response,4,44491,0.0-1.0,NA,"<h3>Welcome!</h3>  <p style='text-align:left'>Please read the following instructions carefully.</p>  <p style='text-align:left'>In this experiment, you will read 13 statements followed by a question, as in the example below:</p>  <div style='display: flex; justify-content: center;'>    <div style='white-space: nowrap; text-align: left;'>      <p style='text-align:left'> <i>Robin didn't believe that the table wobbled.</i> </p>      <p style='text-align:left'> According to this statement, did the table wobble? </p>    </div>  </div>  <p style='text-align:left'>To answer the question, you will use a slider marked 'no' at one end and 'yes' at the other.</p>  <p style='text-align:left'>The experiment will take about 2.5 minutes and you will be paid £0.39.</p>  <p style='text-align:left' font size=""1"">By clicking the button below, you agree to participate in this experiment conducted by researchers at the University of Stuttgart. You may withdraw from the experiment at any time. The data collected will be anonymous and confidential. If you have any questions, you can contact the requester through Prolific or by writing directly to st166874@stud.uni-stuttgart.de.</p>",NA,NA,237cb5f0-49d0-421f-8b03-601dbaa9e6c2,2024-09-14 15:34:52 CEST
8621,100,html-slider-response,5,53113,0.0-2.0-0.0,NA,"<i>Reese didn't uncover that the factory closed.</i> <br> <br> According to this statement, did the factory close?",50,NA,237cb5f0-49d0-421f-8b03-601dbaa9e6c2,2024-09-14 15:34:52 CEST
7997,100,html-slider-response,6,61111,0.0-2.0-0.1,NA,"<i>Dylan didn't specify that the sauce thickened.</i> <br> <br> According to this statement, did the sauce thicken?",50,NA,237cb5f0-49d0-421f-8b03-601dbaa9e6c2,2024-09-14 15:34:52 CEST
6207,100,html-slider-response,7,67318,0.0-2.0-0.2,NA,"<i>Evan didn't debate that the airbag deployed.</i> <br> <br> According to this statement, did the airbag deploy?",50,NA,237cb5f0-49d0-421f-8b03-601dbaa9e6c2,2024-09-14 15:34:52 CEST
5122,0,html-slider-response,8,72441,0.0-2.0-0.3,NA,"<i>Taylor smiled when the vase didn't shatter.</i> <br> <br> According to this statement, did the vase shatter?",50,NA,237cb5f0-49d0-421f-8b03-601dbaa9e6c2,2024-09-14 15:34:52 CEST
8593,100,html-slider-response,9,81035,0.0-2.0-0.4,NA,"<i>Stevie didn't admit that the room darkened.</i> <br> <br> According to this statement, did the room darken?",50,NA,237cb5f0-49d0-421f-8b03-601dbaa9e6c2,2024-09-14 15:34:52 CEST
5495,100,html-slider-response,10,86531,0.0-2.0-0.5,NA,"<i>Frankie didn't showcase that the egg cracked.</i> <br> <br> According to this statement, did the egg crack?",50,NA,237cb5f0-49d0-421f-8b03-601dbaa9e6c2,2024-09-14 15:34:52 CEST
6079,100,html-slider-response,11,92611,0.0-2.0-0.6,NA,"<i>Blake didn't share that the knot tightened.</i> <br> <br> According to this statement, did the knot tighten?",50,NA,237cb5f0-49d0-421f-8b03-601dbaa9e6c2,2024-09-14 15:34:52 CEST
4667,100,html-slider-response,12,97279,0.0-2.0-0.7,NA,"<i>Morgan didn't record that the computer restarted.</i> <br> <br> According to this statement, did the computer restart?",50,NA,237cb5f0-49d0-421f-8b03-601dbaa9e6c2,2024-09-14 15:34:52 CEST
4435,100,html-slider-response,13,101715,0.0-2.0-0.8,NA,"<i>Harper didn't underline that the balloon popped.</i> <br> <br> According to this statement, did the balloon pop?",50,NA,237cb5f0-49d0-421f-8b03-601dbaa9e6c2,2024-09-14 15:34:52 CEST
4153,100,html-slider-response,14,105869,0.0-2.0-0.9,NA,"<i>Charlie didn't tweet that the paper burned.</i> <br> <br> According to this statement, did the paper burn?",50,NA,237cb5f0-49d0-421f-8b03-601dbaa9e6c2,2024-09-14 15:34:52 CEST
5863,100,html-slider-response,15,111733,0.0-2.0-0.10,NA,"<i>Jamie didn't add that the bolt loosened.</i> <br> <br> According to this statement, did the bolt loosen?",50,NA,237cb5f0-49d0-421f-8b03-601dbaa9e6c2,2024-09-14 15:34:52 CEST
11969,100,html-slider-response,16,123703,0.0-2.0-0.11,NA,"<i>Jordan didn't whimper that the gate opened.</i> <br> <br> According to this statement, did the gate open?",50,NA,237cb5f0-49d0-421f-8b03-601dbaa9e6c2,2024-09-14 15:34:52 CEST
4967,100,html-slider-response,17,128671,0.0-2.0-0.12,NA,"<i>Alex didn't fall when the cane broke.</i> <br> <br> According to this statement, did the cane break?",50,NA,237cb5f0-49d0-421f-8b03-601dbaa9e6c2,2024-09-14 15:34:52 CEST
12192,"{""P0_Q0"":null,""age"":""52"",""gender"":""female"",""language"":""yes"",""AE"":""yes"",""comments"":""""}",survey,18,140912,0.0-3.0,NA,NA,NA,[],237cb5f0-49d0-421f-8b03-601dbaa9e6c2,2024-09-14 15:34:52 CEST
12990,"{""Q0"":""Jessica""}",survey-text,0,13032,0.0-0.0-0.0,TRUE,NA,NA,NA,0269003c-0abc-402b-8a34-3dbbf2641f74,2024-09-14 15:35:18 CEST
2197,0,html-button-response,1,15234,0.0-0.0-3.0-0.0,NA,<p style='text-align:left'><b> Correct response! You are a human :) </b><br><br></p>,NA,NA,0269003c-0abc-402b-8a34-3dbbf2641f74,2024-09-14 15:35:18 CEST
19526,0,html-button-response,2,34766,0.0-1.0,NA,"<h3>Welcome!</h3>  <p style='text-align:left'>Please read the following instructions carefully.</p>  <p style='text-align:left'>In this experiment, you will read 13 statements followed by a question, as in the example below:</p>  <div style='display: flex; justify-content: center;'>    <div style='white-space: nowrap; text-align: left;'>      <p style='text-align:left'> <i>Robin didn't believe that the table wobbled.</i> </p>      <p style='text-align:left'> According to this statement, did the table wobble? </p>    </div>  </div>  <p style='text-align:left'>To answer the question, you will use a slider marked 'no' at one end and 'yes' at the other.</p>  <p style='text-align:left'>The experiment will take about 2.5 minutes and you will be paid £0.39.</p>  <p style='text-align:left' font size=""1"">By clicking the button below, you agree to participate in this experiment conducted by researchers at the University of Stuttgart. You may withdraw from the experiment at any time. The data collected will be anonymous and confidential. If you have any questions, you can contact the requester through Prolific or by writing directly to st166874@stud.uni-stuttgart.de.</p>",NA,NA,0269003c-0abc-402b-8a34-3dbbf2641f74,2024-09-14 15:35:18 CEST
7820,100,html-slider-response,3,42591,0.0-2.0-0.0,NA,"<i>Jamie didn't fuss that the room darkened.</i> <br> <br> According to this statement, did the room darken?",50,NA,0269003c-0abc-402b-8a34-3dbbf2641f74,2024-09-14 15:35:18 CEST
18834,46,html-slider-response,4,61430,0.0-2.0-0.1,NA,"<i>Evan didn't blog that the egg cracked.</i> <br> <br> According to this statement, did the egg crack?",50,NA,0269003c-0abc-402b-8a34-3dbbf2641f74,2024-09-14 15:35:18 CEST
9857,0,html-slider-response,5,71290,0.0-2.0-0.2,NA,"<i>Taylor smiled when the vase didn't shatter.</i> <br> <br> According to this statement, did the vase shatter?",50,NA,0269003c-0abc-402b-8a34-3dbbf2641f74,2024-09-14 15:35:18 CEST
15377,44,html-slider-response,6,86672,0.0-2.0-0.3,NA,"<i>Reese didn't reaffirm that the factory closed.</i> <br> <br> According to this statement, did the factory close?",50,NA,0269003c-0abc-402b-8a34-3dbbf2641f74,2024-09-14 15:35:18 CEST
10918,47,html-slider-response,7,97593,0.0-2.0-0.4,NA,"<i>Morgan didn't warn that the sauce thickened.</i> <br> <br> According to this statement, did the sauce thicken?",50,NA,0269003c-0abc-402b-8a34-3dbbf2641f74,2024-09-14 15:35:18 CEST
9106,77,html-slider-response,8,106703,0.0-2.0-0.5,NA,"<i>Jordan didn't divulge that the balloon popped.</i> <br> <br> According to this statement, did the balloon pop?",50,NA,0269003c-0abc-402b-8a34-3dbbf2641f74,2024-09-14 15:35:18 CEST
10127,48,html-slider-response,9,116834,0.0-2.0-0.6,NA,"<i>Frankie didn't insist that the gate opened.</i> <br> <br> According to this statement, did the gate open?",50,NA,0269003c-0abc-402b-8a34-3dbbf2641f74,2024-09-14 15:35:18 CEST
7753,100,html-slider-response,10,124590,0.0-2.0-0.7,NA,"<i>Alex didn't fall when the cane broke.</i> <br> <br> According to this statement, did the cane break?",50,NA,0269003c-0abc-402b-8a34-3dbbf2641f74,2024-09-14 15:35:18 CEST
20915,48,html-slider-response,11,145507,0.0-2.0-0.8,NA,"<i>Harper didn't signify that the airbag deployed.</i> <br> <br> According to this statement, did the airbag deploy?",50,NA,0269003c-0abc-402b-8a34-3dbbf2641f74,2024-09-14 15:35:18 CEST
7814,47,html-slider-response,12,153323,0.0-2.0-0.9,NA,"<i>Dylan didn't document that the computer restarted.</i> <br> <br> According to this statement, did the computer restart?",50,NA,0269003c-0abc-402b-8a34-3dbbf2641f74,2024-09-14 15:35:18 CEST
7251,46,html-slider-response,13,160577,0.0-2.0-0.10,NA,"<i>Stevie didn't contend that the knot tightened.</i> <br> <br> According to this statement, did the knot tighten?",50,NA,0269003c-0abc-402b-8a34-3dbbf2641f74,2024-09-14 15:35:18 CEST
6430,47,html-slider-response,14,167010,0.0-2.0-0.11,NA,"<i>Blake didn't log that the bolt loosened.</i> <br> <br> According to this statement, did the bolt loosen?",50,NA,0269003c-0abc-402b-8a34-3dbbf2641f74,2024-09-14 15:35:18 CEST
4953,47,html-slider-response,15,171966,0.0-2.0-0.12,NA,"<i>Charlie didn't submit that the paper burned.</i> <br> <br> According to this statement, did the paper burn?",50,NA,0269003c-0abc-402b-8a34-3dbbf2641f74,2024-09-14 15:35:18 CEST
14681,"{""P0_Q0"":null,""age"":""67"",""gender"":""male"",""language"":""yes"",""AE"":""yes"",""comments"":""""}",survey,16,186786,0.0-3.0,NA,NA,NA,[],0269003c-0abc-402b-8a34-3dbbf2641f74,2024-09-14 15:35:18 CEST
11283,"{""Q0"":""Linda""}",survey-text,0,11298,0.0-0.0-0.0,TRUE,NA,NA,NA,7426c3b1-64ff-4e61-b281-de3f65d61a93,2024-09-14 15:36:33 CEST
1221,0,html-button-response,1,12521,0.0-0.0-3.0-0.0,NA,<p style='text-align:left'><b> Correct response! You are a human :) </b><br><br></p>,NA,NA,7426c3b1-64ff-4e61-b281-de3f65d61a93,2024-09-14 15:36:33 CEST
2808,0,html-button-response,2,15329,0.0-1.0,NA,"<h3>Welcome!</h3>  <p style='text-align:left'>Please read the following instructions carefully.</p>  <p style='text-align:left'>In this experiment, you will read 13 statements followed by a question, as in the example below:</p>  <div style='display: flex; justify-content: center;'>    <div style='white-space: nowrap; text-align: left;'>      <p style='text-align:left'> <i>Robin didn't believe that the table wobbled.</i> </p>      <p style='text-align:left'> According to this statement, did the table wobble? </p>    </div>  </div>  <p style='text-align:left'>To answer the question, you will use a slider marked 'no' at one end and 'yes' at the other.</p>  <p style='text-align:left'>The experiment will take about 2.5 minutes and you will be paid £0.39.</p>  <p style='text-align:left' font size=""1"">By clicking the button below, you agree to participate in this experiment conducted by researchers at the University of Stuttgart. You may withdraw from the experiment at any time. The data collected will be anonymous and confidential. If you have any questions, you can contact the requester through Prolific or by writing directly to st166874@stud.uni-stuttgart.de.</p>",NA,NA,7426c3b1-64ff-4e61-b281-de3f65d61a93,2024-09-14 15:36:33 CEST
8191,0,html-slider-response,3,23521,0.0-2.0-0.0,NA,"<i>Dylan didn't clarify that the computer restarted.</i> <br> <br> According to this statement, did the computer restart?",50,NA,7426c3b1-64ff-4e61-b281-de3f65d61a93,2024-09-14 15:36:33 CEST
4695,100,html-slider-response,4,28218,0.0-2.0-0.1,NA,"<i>Blake didn't disclose that the knot tightened.</i> <br> <br> According to this statement, did the knot tighten?",50,NA,7426c3b1-64ff-4e61-b281-de3f65d61a93,2024-09-14 15:36:33 CEST
5663,2,html-slider-response,5,33883,0.0-2.0-0.2,NA,"<i>Jamie didn't contend that the egg cracked.</i> <br> <br> According to this statement, did the egg crack?",50,NA,7426c3b1-64ff-4e61-b281-de3f65d61a93,2024-09-14 15:36:33 CEST
3671,0,html-slider-response,6,37554,0.0-2.0-0.3,NA,"<i>Jordan didn't shout that the gate opened.</i> <br> <br> According to this statement, did the gate open?",50,NA,7426c3b1-64ff-4e61-b281-de3f65d61a93,2024-09-14 15:36:33 CEST
2848,0,html-slider-response,7,40403,0.0-2.0-0.4,NA,"<i>Stevie didn't certify that the factory closed.</i> <br> <br> According to this statement, did the factory close?",50,NA,7426c3b1-64ff-4e61-b281-de3f65d61a93,2024-09-14 15:36:33 CEST
4855,100,html-slider-response,8,45258,0.0-2.0-0.5,NA,"<i>Harper didn't contest that the paper burned.</i> <br> <br> According to this statement, did the paper burn?",50,NA,7426c3b1-64ff-4e61-b281-de3f65d61a93,2024-09-14 15:36:33 CEST
5008,100,html-slider-response,9,50267,0.0-2.0-0.6,NA,"<i>Morgan didn't apologize that the room darkened.</i> <br> <br> According to this statement, did the room darken?",50,NA,7426c3b1-64ff-4e61-b281-de3f65d61a93,2024-09-14 15:36:33 CEST
4727,0,html-slider-response,10,54994,0.0-2.0-0.7,NA,"<i>Taylor smiled when the vase didn't shatter.</i> <br> <br> According to this statement, did the vase shatter?",50,NA,7426c3b1-64ff-4e61-b281-de3f65d61a93,2024-09-14 15:36:33 CEST
4543,100,html-slider-response,11,59538,0.0-2.0-0.8,NA,"<i>Frankie didn't uncover that the bolt loosened.</i> <br> <br> According to this statement, did the bolt loosen?",50,NA,7426c3b1-64ff-4e61-b281-de3f65d61a93,2024-09-14 15:36:33 CEST
6199,100,html-slider-response,12,65738,0.0-2.0-0.9,NA,"<i>Charlie didn't rant that the airbag deployed.</i> <br> <br> According to this statement, did the airbag deploy?",50,NA,7426c3b1-64ff-4e61-b281-de3f65d61a93,2024-09-14 15:36:33 CEST
4312,100,html-slider-response,13,70051,0.0-2.0-0.10,NA,"<i>Evan didn't babble that the sauce thickened.</i> <br> <br> According to this statement, did the sauce thicken?",50,NA,7426c3b1-64ff-4e61-b281-de3f65d61a93,2024-09-14 15:36:33 CEST
4606,100,html-slider-response,14,74657,0.0-2.0-0.11,NA,"<i>Reese didn't radio that the balloon popped.</i> <br> <br> According to this statement, did the balloon pop?",50,NA,7426c3b1-64ff-4e61-b281-de3f65d61a93,2024-09-14 15:36:33 CEST
41824,100,html-slider-response,15,116483,0.0-2.0-0.12,NA,"<i>Alex didn't fall when the cane broke.</i> <br> <br> According to this statement, did the cane break?",50,NA,7426c3b1-64ff-4e61-b281-de3f65d61a93,2024-09-14 15:36:33 CEST
10755,"{""P0_Q0"":null,""age"":""33"",""gender"":""female"",""language"":""yes"",""AE"":""yes"",""comments"":""""}",survey,16,127284,0.0-3.0,NA,NA,NA,[],7426c3b1-64ff-4e61-b281-de3f65d61a93,2024-09-14 15:36:33 CEST
9899,"{""Q0"":""Mary""}",survey-text,0,9906,0.0-0.0-0.0,TRUE,NA,NA,NA,cef4cef9-ade4-456f-85cb-212cb8542e4a,2024-09-14 15:38:37 CEST
1160,0,html-button-response,1,11068,0.0-0.0-3.0-0.0,NA,<p style='text-align:left'><b> Correct response! You are a human :) </b><br><br></p>,NA,NA,cef4cef9-ade4-456f-85cb-212cb8542e4a,2024-09-14 15:38:37 CEST
18547,0,html-button-response,2,29617,0.0-1.0,NA,"<h3>Welcome!</h3>  <p style='text-align:left'>Please read the following instructions carefully.</p>  <p style='text-align:left'>In this experiment, you will read 13 statements followed by a question, as in the example below:</p>  <div style='display: flex; justify-content: center;'>    <div style='white-space: nowrap; text-align: left;'>      <p style='text-align:left'> <i>Robin didn't believe that the table wobbled.</i> </p>      <p style='text-align:left'> According to this statement, did the table wobble? </p>    </div>  </div>  <p style='text-align:left'>To answer the question, you will use a slider marked 'no' at one end and 'yes' at the other.</p>  <p style='text-align:left'>The experiment will take about 2.5 minutes and you will be paid £0.39.</p>  <p style='text-align:left' font size=""1"">By clicking the button below, you agree to participate in this experiment conducted by researchers at the University of Stuttgart. You may withdraw from the experiment at any time. The data collected will be anonymous and confidential. If you have any questions, you can contact the requester through Prolific or by writing directly to st166874@stud.uni-stuttgart.de.</p>",NA,NA,cef4cef9-ade4-456f-85cb-212cb8542e4a,2024-09-14 15:38:37 CEST
9572,0,html-slider-response,3,39191,0.0-2.0-0.0,NA,"<i>Harper didn't pretend that the computer restarted.</i> <br> <br> According to this statement, did the computer restart?",50,NA,cef4cef9-ade4-456f-85cb-212cb8542e4a,2024-09-14 15:38:37 CEST
4990,0,html-slider-response,4,44183,0.0-2.0-0.1,NA,"<i>Taylor smiled when the vase didn't shatter.</i> <br> <br> According to this statement, did the vase shatter?",50,NA,cef4cef9-ade4-456f-85cb-212cb8542e4a,2024-09-14 15:38:37 CEST
11114,100,html-slider-response,5,55298,0.0-2.0-0.2,NA,"<i>Blake didn't mention that the airbag deployed.</i> <br> <br> According to this statement, did the airbag deploy?",50,NA,cef4cef9-ade4-456f-85cb-212cb8542e4a,2024-09-14 15:38:37 CEST
11470,100,html-slider-response,6,66770,0.0-2.0-0.3,NA,"<i>Stevie didn't grunt that the sauce thickened.</i> <br> <br> According to this statement, did the sauce thicken?",50,NA,cef4cef9-ade4-456f-85cb-212cb8542e4a,2024-09-14 15:38:37 CEST
13143,100,html-slider-response,7,79916,0.0-2.0-0.4,NA,"<i>Reese didn't warrant that the gate opened.</i> <br> <br> According to this statement, did the gate open?",50,NA,cef4cef9-ade4-456f-85cb-212cb8542e4a,2024-09-14 15:38:37 CEST
11297,100,html-slider-response,8,91214,0.0-2.0-0.5,NA,"<i>Frankie didn't quip that the bolt loosened.</i> <br> <br> According to this statement, did the bolt loosen?",50,NA,cef4cef9-ade4-456f-85cb-212cb8542e4a,2024-09-14 15:38:37 CEST
7875,100,html-slider-response,9,99091,0.0-2.0-0.6,NA,"<i>Evan didn't question that the balloon popped.</i> <br> <br> According to this statement, did the balloon pop?",50,NA,cef4cef9-ade4-456f-85cb-212cb8542e4a,2024-09-14 15:38:37 CEST
7440,100,html-slider-response,10,106533,0.0-2.0-0.7,NA,"<i>Alex didn't fall when the cane broke.</i> <br> <br> According to this statement, did the cane break?",50,NA,cef4cef9-ade4-456f-85cb-212cb8542e4a,2024-09-14 15:38:37 CEST
16764,100,html-slider-response,11,123299,0.0-2.0-0.8,NA,"<i>Jamie didn't phone that the knot tightened.</i> <br> <br> According to this statement, did the knot tighten?",50,NA,cef4cef9-ade4-456f-85cb-212cb8542e4a,2024-09-14 15:38:37 CEST
10898,100,html-slider-response,12,134198,0.0-2.0-0.9,NA,"<i>Charlie didn't jest that the paper burned.</i> <br> <br> According to this statement, did the paper burn?",50,NA,cef4cef9-ade4-456f-85cb-212cb8542e4a,2024-09-14 15:38:37 CEST
7409,100,html-slider-response,13,141609,0.0-2.0-0.10,NA,"<i>Jordan didn't argue that the factory closed.</i> <br> <br> According to this statement, did the factory close?",50,NA,cef4cef9-ade4-456f-85cb-212cb8542e4a,2024-09-14 15:38:37 CEST
6495,0,html-slider-response,14,148105,0.0-2.0-0.11,NA,"<i>Dylan didn't demonstrate that the room darkened.</i> <br> <br> According to this statement, did the room darken?",50,NA,cef4cef9-ade4-456f-85cb-212cb8542e4a,2024-09-14 15:38:37 CEST
10230,100,html-slider-response,15,158336,0.0-2.0-0.12,NA,"<i>Morgan didn't retort that the egg cracked.</i> <br> <br> According to this statement, did the egg crack?",50,NA,cef4cef9-ade4-456f-85cb-212cb8542e4a,2024-09-14 15:38:37 CEST
10953,"{""P0_Q0"":null,""age"":""31"",""gender"":""female"",""language"":""yes"",""AE"":""yes"",""comments"":""""}",survey,16,169329,0.0-3.0,NA,NA,NA,[],cef4cef9-ade4-456f-85cb-212cb8542e4a,2024-09-14 15:38:37 CEST
