rt,response,trial_type,trial_index,time_elapsed,internal_node_id,correct,stimulus,slider_start,accuracy,participant_id,ctime
3177,"{""Q0"":""Susan""}",survey-text,0,3189,0.0-0.0-0.0,TRUE,NA,NA,NA,c6091023-9500-4461-bcf7-ce9dd7cdbcc9,2024-09-13 16:47:57 CEST
960,0,html-button-response,1,4152,0.0-0.0-3.0-0.0,NA,<p style='text-align:left'><b> Correct response! You are a human :) </b><br><br></p>,NA,NA,c6091023-9500-4461-bcf7-ce9dd7cdbcc9,2024-09-13 16:47:57 CEST
18004,0,html-button-response,2,22159,0.0-1.0,NA,"<h3>Welcome!</h3>  <p style='text-align:left'>Please read the following instructions carefully.</p>  <p style='text-align:left'>In this experiment, you will read 13 statements followed by a question, as in the example below:</p>  <div style='display: flex; justify-content: center;'>    <div style='white-space: nowrap; text-align: left;'>      <p style='text-align:left'> <i>Robin didn't believe that the table wobbled.</i> </p>      <p style='text-align:left'> According to this statement, did the table wobble? </p>    </div>  </div>  <p style='text-align:left'>To answer the question, you will use a slider marked 'no' at one end and 'yes' at the other.</p>  <p style='text-align:left'>The experiment will take about 2.5 minutes and you will be paid £0.39.</p>  <p style='text-align:left' font size=""1"">By clicking the button below, you agree to participate in this experiment conducted by researchers at the University of Stuttgart. You may withdraw from the experiment at any time. The data collected will be anonymous and confidential. If you have any questions, you can contact the requester through Prolific or by writing directly to st166874@stud.uni-stuttgart.de.</p>",NA,NA,c6091023-9500-4461-bcf7-ce9dd7cdbcc9,2024-09-13 16:47:57 CEST
1867,76,html-slider-response,3,24029,0.0-2.0-0.0,NA,"<i>Reese didn't complain that the balloon popped.</i> <br> <br> According to this statement, did the balloon pop?",50,NA,c6091023-9500-4461-bcf7-ce9dd7cdbcc9,2024-09-13 16:47:57 CEST
1218,37,html-slider-response,4,25250,0.0-2.0-0.1,NA,"<i>Charlie didn't shriek that the computer restarted.</i> <br> <br> According to this statement, did the computer restart?",50,NA,c6091023-9500-4461-bcf7-ce9dd7cdbcc9,2024-09-13 16:47:57 CEST
1827,62,html-slider-response,5,27079,0.0-2.0-0.2,NA,"<i>Frankie didn't state that the paper burned.</i> <br> <br> According to this statement, did the paper burn?",50,NA,c6091023-9500-4461-bcf7-ce9dd7cdbcc9,2024-09-13 16:47:57 CEST
1361,38,html-slider-response,6,28443,0.0-2.0-0.3,NA,"<i>Morgan didn't relate that the room darkened.</i> <br> <br> According to this statement, did the room darken?",50,NA,c6091023-9500-4461-bcf7-ce9dd7cdbcc9,2024-09-13 16:47:57 CEST
1747,59,html-slider-response,7,30192,0.0-2.0-0.4,NA,"<i>Jordan didn't shout that the sauce thickened.</i> <br> <br> According to this statement, did the sauce thicken?",50,NA,c6091023-9500-4461-bcf7-ce9dd7cdbcc9,2024-09-13 16:47:57 CEST
1810,29,html-slider-response,8,32005,0.0-2.0-0.5,NA,"<i>Blake didn't discuss that the bolt loosened.</i> <br> <br> According to this statement, did the bolt loosen?",50,NA,c6091023-9500-4461-bcf7-ce9dd7cdbcc9,2024-09-13 16:47:57 CEST
1403,63,html-slider-response,9,33410,0.0-2.0-0.6,NA,"<i>Alex didn't fall when the cane broke.</i> <br> <br> According to this statement, did the cane break?",50,NA,c6091023-9500-4461-bcf7-ce9dd7cdbcc9,2024-09-13 16:47:57 CEST
1817,34,html-slider-response,10,35229,0.0-2.0-0.7,NA,"<i>Dylan didn't underscore that the knot tightened.</i> <br> <br> According to this statement, did the knot tighten?",50,NA,c6091023-9500-4461-bcf7-ce9dd7cdbcc9,2024-09-13 16:47:57 CEST
1405,63,html-slider-response,11,36635,0.0-2.0-0.8,NA,"<i>Evan didn't lie that the airbag deployed.</i> <br> <br> According to this statement, did the airbag deploy?",50,NA,c6091023-9500-4461-bcf7-ce9dd7cdbcc9,2024-09-13 16:47:57 CEST
1540,36,html-slider-response,12,38177,0.0-2.0-0.9,NA,"<i>Stevie didn't flaunt that the gate opened.</i> <br> <br> According to this statement, did the gate open?",50,NA,c6091023-9500-4461-bcf7-ce9dd7cdbcc9,2024-09-13 16:47:57 CEST
1578,61,html-slider-response,13,39757,0.0-2.0-0.10,NA,"<i>Taylor smiled when the vase didn't shatter.</i> <br> <br> According to this statement, did the vase shatter?",50,NA,c6091023-9500-4461-bcf7-ce9dd7cdbcc9,2024-09-13 16:47:57 CEST
1602,32,html-slider-response,14,41361,0.0-2.0-0.11,NA,"<i>Harper didn't indicate that the factory closed.</i> <br> <br> According to this statement, did the factory close?",50,NA,c6091023-9500-4461-bcf7-ce9dd7cdbcc9,2024-09-13 16:47:57 CEST
1595,57,html-slider-response,15,42957,0.0-2.0-0.12,NA,"<i>Jamie didn't leak that the egg cracked.</i> <br> <br> According to this statement, did the egg crack?",50,NA,c6091023-9500-4461-bcf7-ce9dd7cdbcc9,2024-09-13 16:47:57 CEST
2651,"{""P0_Q0"":null,""age"":"""",""gender"":"""",""language"":"""",""AE"":"""",""comments"":""""}",survey,16,45642,0.0-3.0,NA,NA,NA,[],c6091023-9500-4461-bcf7-ce9dd7cdbcc9,2024-09-13 16:47:57 CEST
26126,"{""Q0"":""Linda""}",survey-text,0,26140,0.0-0.0-0.0,TRUE,NA,NA,NA,7bc883a7-83c8-4437-b4c9-3147a8ccbe28,2024-09-14 15:17:59 CEST
2088,0,html-button-response,1,28230,0.0-0.0-3.0-0.0,NA,<p style='text-align:left'><b> Correct response! You are a human :) </b><br><br></p>,NA,NA,7bc883a7-83c8-4437-b4c9-3147a8ccbe28,2024-09-14 15:17:59 CEST
11385,0,html-button-response,2,39616,0.0-1.0,NA,"<h3>Welcome!</h3>  <p style='text-align:left'>Please read the following instructions carefully.</p>  <p style='text-align:left'>In this experiment, you will read 13 statements followed by a question, as in the example below:</p>  <div style='display: flex; justify-content: center;'>    <div style='white-space: nowrap; text-align: left;'>      <p style='text-align:left'> <i>Robin didn't believe that the table wobbled.</i> </p>      <p style='text-align:left'> According to this statement, did the table wobble? </p>    </div>  </div>  <p style='text-align:left'>To answer the question, you will use a slider marked 'no' at one end and 'yes' at the other.</p>  <p style='text-align:left'>The experiment will take about 2.5 minutes and you will be paid £0.39.</p>  <p style='text-align:left' font size=""1"">By clicking the button below, you agree to participate in this experiment conducted by researchers at the University of Stuttgart. You may withdraw from the experiment at any time. The data collected will be anonymous and confidential. If you have any questions, you can contact the requester through Prolific or by writing directly to st166874@stud.uni-stuttgart.de.</p>",NA,NA,7bc883a7-83c8-4437-b4c9-3147a8ccbe28,2024-09-14 15:17:59 CEST
6288,36,html-slider-response,3,45906,0.0-2.0-0.0,NA,"<i>Stevie didn't embellish that the computer restarted.</i> <br> <br> According to this statement, did the computer restart?",50,NA,7bc883a7-83c8-4437-b4c9-3147a8ccbe28,2024-09-14 15:17:59 CEST
4011,33,html-slider-response,4,49918,0.0-2.0-0.1,NA,"<i>Charlie didn't summarize that the paper burned.</i> <br> <br> According to this statement, did the paper burn?",50,NA,7bc883a7-83c8-4437-b4c9-3147a8ccbe28,2024-09-14 15:17:59 CEST
6177,90,html-slider-response,5,56097,0.0-2.0-0.2,NA,"<i>Evan didn't mention that the bolt loosened.</i> <br> <br> According to this statement, did the bolt loosen?",50,NA,7bc883a7-83c8-4437-b4c9-3147a8ccbe28,2024-09-14 15:17:59 CEST
4805,0,html-slider-response,6,60902,0.0-2.0-0.3,NA,"<i>Taylor smiled when the vase didn't shatter.</i> <br> <br> According to this statement, did the vase shatter?",50,NA,7bc883a7-83c8-4437-b4c9-3147a8ccbe28,2024-09-14 15:17:59 CEST
4765,50,html-slider-response,7,65668,0.0-2.0-0.4,NA,"<i>Jamie didn't scribble that the egg cracked.</i> <br> <br> According to this statement, did the egg crack?",50,NA,7bc883a7-83c8-4437-b4c9-3147a8ccbe28,2024-09-14 15:17:59 CEST
4429,100,html-slider-response,8,70099,0.0-2.0-0.5,NA,"<i>Alex didn't fall when the cane broke.</i> <br> <br> According to this statement, did the cane break?",50,NA,7bc883a7-83c8-4437-b4c9-3147a8ccbe28,2024-09-14 15:17:59 CEST
9293,65,html-slider-response,9,79393,0.0-2.0-0.6,NA,"<i>Morgan didn't advertise that the gate opened.</i> <br> <br> According to this statement, did the gate open?",50,NA,7bc883a7-83c8-4437-b4c9-3147a8ccbe28,2024-09-14 15:17:59 CEST
3861,91,html-slider-response,10,83255,0.0-2.0-0.7,NA,"<i>Blake didn't gush that the knot tightened.</i> <br> <br> According to this statement, did the knot tighten?",50,NA,7bc883a7-83c8-4437-b4c9-3147a8ccbe28,2024-09-14 15:17:59 CEST
5286,52,html-slider-response,11,88542,0.0-2.0-0.8,NA,"<i>Dylan didn't holler that the factory closed.</i> <br> <br> According to this statement, did the factory close?",50,NA,7bc883a7-83c8-4437-b4c9-3147a8ccbe28,2024-09-14 15:17:59 CEST
4093,34,html-slider-response,12,92635,0.0-2.0-0.9,NA,"<i>Jordan didn't exhibit that the sauce thickened.</i> <br> <br> According to this statement, did the sauce thicken?",50,NA,7bc883a7-83c8-4437-b4c9-3147a8ccbe28,2024-09-14 15:17:59 CEST
7405,70,html-slider-response,13,100042,0.0-2.0-0.10,NA,"<i>Frankie didn't blog that the room darkened.</i> <br> <br> According to this statement, did the room darken?",50,NA,7bc883a7-83c8-4437-b4c9-3147a8ccbe28,2024-09-14 15:17:59 CEST
5187,50,html-slider-response,14,105230,0.0-2.0-0.11,NA,"<i>Harper didn't repeat that the balloon popped.</i> <br> <br> According to this statement, did the balloon pop?",50,NA,7bc883a7-83c8-4437-b4c9-3147a8ccbe28,2024-09-14 15:17:59 CEST
10365,50,html-slider-response,15,115596,0.0-2.0-0.12,NA,"<i>Reese didn't corroborate that the airbag deployed.</i> <br> <br> According to this statement, did the airbag deploy?",50,NA,7bc883a7-83c8-4437-b4c9-3147a8ccbe28,2024-09-14 15:17:59 CEST
49780,"{""P0_Q0"":null,""age"":""1234"",""gender"":""other"",""gender-Comment"":""green"",""language"":""no"",""AE"":""no"",""comments"":""YK""}",survey,16,165424,0.0-3.0,NA,NA,NA,[],7bc883a7-83c8-4437-b4c9-3147a8ccbe28,2024-09-14 15:17:59 CEST
12224,"{""Q0"":""Elizabeth""}",survey-text,0,12272,0.0-0.0-0.0,TRUE,NA,NA,NA,81d9a83f-c0cc-4508-95ea-9e176f006e52,2024-09-14 15:32:06 CEST
1406,0,html-button-response,1,13679,0.0-0.0-3.0-0.0,NA,<p style='text-align:left'><b> Correct response! You are a human :) </b><br><br></p>,NA,NA,81d9a83f-c0cc-4508-95ea-9e176f006e52,2024-09-14 15:32:06 CEST
5606,0,html-button-response,2,19285,0.0-1.0,NA,"<h3>Welcome!</h3>  <p style='text-align:left'>Please read the following instructions carefully.</p>  <p style='text-align:left'>In this experiment, you will read 13 statements followed by a question, as in the example below:</p>  <div style='display: flex; justify-content: center;'>    <div style='white-space: nowrap; text-align: left;'>      <p style='text-align:left'> <i>Robin didn't believe that the table wobbled.</i> </p>      <p style='text-align:left'> According to this statement, did the table wobble? </p>    </div>  </div>  <p style='text-align:left'>To answer the question, you will use a slider marked 'no' at one end and 'yes' at the other.</p>  <p style='text-align:left'>The experiment will take about 2.5 minutes and you will be paid £0.39.</p>  <p style='text-align:left' font size=""1"">By clicking the button below, you agree to participate in this experiment conducted by researchers at the University of Stuttgart. You may withdraw from the experiment at any time. The data collected will be anonymous and confidential. If you have any questions, you can contact the requester through Prolific or by writing directly to st166874@stud.uni-stuttgart.de.</p>",NA,NA,81d9a83f-c0cc-4508-95ea-9e176f006e52,2024-09-14 15:32:06 CEST
8742,100,html-slider-response,3,28028,0.0-2.0-0.0,NA,"<i>Blake didn't explain that the gate opened.</i> <br> <br> According to this statement, did the gate open?",50,NA,81d9a83f-c0cc-4508-95ea-9e176f006e52,2024-09-14 15:32:06 CEST
5822,100,html-slider-response,4,33849,0.0-2.0-0.1,NA,"<i>Alex didn't fall when the cane broke.</i> <br> <br> According to this statement, did the cane break?",50,NA,81d9a83f-c0cc-4508-95ea-9e176f006e52,2024-09-14 15:32:06 CEST
6705,100,html-slider-response,5,40554,0.0-2.0-0.2,NA,"<i>Stevie didn't warn that the bolt loosened.</i> <br> <br> According to this statement, did the bolt loosen?",50,NA,81d9a83f-c0cc-4508-95ea-9e176f006e52,2024-09-14 15:32:06 CEST
6360,100,html-slider-response,6,46915,0.0-2.0-0.3,NA,"<i>Jamie didn't stipulate that the sauce thickened.</i> <br> <br> According to this statement, did the sauce thicken?",50,NA,81d9a83f-c0cc-4508-95ea-9e176f006e52,2024-09-14 15:32:06 CEST
4937,100,html-slider-response,7,51852,0.0-2.0-0.4,NA,"<i>Harper didn't assert that the computer restarted.</i> <br> <br> According to this statement, did the computer restart?",50,NA,81d9a83f-c0cc-4508-95ea-9e176f006e52,2024-09-14 15:32:06 CEST
4133,0,html-slider-response,8,55986,0.0-2.0-0.5,NA,"<i>Taylor smiled when the vase didn't shatter.</i> <br> <br> According to this statement, did the vase shatter?",50,NA,81d9a83f-c0cc-4508-95ea-9e176f006e52,2024-09-14 15:32:06 CEST
5426,100,html-slider-response,9,61413,0.0-2.0-0.6,NA,"<i>Morgan didn't know that the factory closed.</i> <br> <br> According to this statement, did the factory close?",50,NA,81d9a83f-c0cc-4508-95ea-9e176f006e52,2024-09-14 15:32:06 CEST
7965,100,html-slider-response,10,69379,0.0-2.0-0.7,NA,"<i>Jordan didn't establish that the egg cracked.</i> <br> <br> According to this statement, did the egg crack?",50,NA,81d9a83f-c0cc-4508-95ea-9e176f006e52,2024-09-14 15:32:06 CEST
3351,100,html-slider-response,11,72729,0.0-2.0-0.8,NA,"<i>Evan didn't embellish that the paper burned.</i> <br> <br> According to this statement, did the paper burn?",50,NA,81d9a83f-c0cc-4508-95ea-9e176f006e52,2024-09-14 15:32:06 CEST
4251,100,html-slider-response,12,76981,0.0-2.0-0.9,NA,"<i>Frankie didn't proclaim that the room darkened.</i> <br> <br> According to this statement, did the room darken?",50,NA,81d9a83f-c0cc-4508-95ea-9e176f006e52,2024-09-14 15:32:06 CEST
4948,100,html-slider-response,13,81931,0.0-2.0-0.10,NA,"<i>Charlie didn't underline that the knot tightened.</i> <br> <br> According to this statement, did the knot tighten?",50,NA,81d9a83f-c0cc-4508-95ea-9e176f006e52,2024-09-14 15:32:06 CEST
13522,50,html-slider-response,14,95453,0.0-2.0-0.11,NA,"<i>Reese didn't bicker that the airbag deployed.</i> <br> <br> According to this statement, did the airbag deploy?",50,NA,81d9a83f-c0cc-4508-95ea-9e176f006e52,2024-09-14 15:32:06 CEST
5403,100,html-slider-response,15,100857,0.0-2.0-0.12,NA,"<i>Dylan didn't quarrel that the balloon popped.</i> <br> <br> According to this statement, did the balloon pop?",50,NA,81d9a83f-c0cc-4508-95ea-9e176f006e52,2024-09-14 15:32:06 CEST
15547,"{""P0_Q0"":null,""age"":""21"",""gender"":""male"",""language"":""yes"",""AE"":""yes"",""comments"":""""}",survey,16,116431,0.0-3.0,NA,NA,NA,[],81d9a83f-c0cc-4508-95ea-9e176f006e52,2024-09-14 15:32:06 CEST
14084,"{""Q0"":""jessoca""}",survey-text,0,14098,0.0-0.0-0.0,FALSE,NA,NA,NA,237cb5f0-49d0-421f-8b03-601dbaa9e6c2,2024-09-14 15:34:52 CEST
2036,0,html-button-response,1,16136,0.0-0.0-1.0-0.0,NA,<p style='text-align:left'><b> Incorrect response! Please try again. </b><br><br></p>,NA,NA,237cb5f0-49d0-421f-8b03-601dbaa9e6c2,2024-09-14 15:34:52 CEST
12239,"{""Q0"":""patricia""}",survey-text,2,28377,0.0-0.0-1.0-1.0,TRUE,NA,NA,NA,237cb5f0-49d0-421f-8b03-601dbaa9e6c2,2024-09-14 15:34:52 CEST
1717,0,html-button-response,3,30095,0.0-0.0-3.0-0.0,NA,<p style='text-align:left'><b> Correct response! You are a human :) </b><br><br></p>,NA,NA,237cb5f0-49d0-421f-8b03-601dbaa9e6c2,2024-09-14 15:34:52 CEST
14395,0,html-button-response,4,44491,0.0-1.0,NA,"<h3>Welcome!</h3>  <p style='text-align:left'>Please read the following instructions carefully.</p>  <p style='text-align:left'>In this experiment, you will read 13 statements followed by a question, as in the example below:</p>  <div style='display: flex; justify-content: center;'>    <div style='white-space: nowrap; text-align: left;'>      <p style='text-align:left'> <i>Robin didn't believe that the table wobbled.</i> </p>      <p style='text-align:left'> According to this statement, did the table wobble? </p>    </div>  </div>  <p style='text-align:left'>To answer the question, you will use a slider marked 'no' at one end and 'yes' at the other.</p>  <p style='text-align:left'>The experiment will take about 2.5 minutes and you will be paid £0.39.</p>  <p style='text-align:left' font size=""1"">By clicking the button below, you agree to participate in this experiment conducted by researchers at the University of Stuttgart. You may withdraw from the experiment at any time. The data collected will be anonymous and confidential. If you have any questions, you can contact the requester through Prolific or by writing directly to st166874@stud.uni-stuttgart.de.</p>",NA,NA,237cb5f0-49d0-421f-8b03-601dbaa9e6c2,2024-09-14 15:34:52 CEST
8621,100,html-slider-response,5,53113,0.0-2.0-0.0,NA,"<i>Reese didn't uncover that the factory closed.</i> <br> <br> According to this statement, did the factory close?",50,NA,237cb5f0-49d0-421f-8b03-601dbaa9e6c2,2024-09-14 15:34:52 CEST
7997,100,html-slider-response,6,61111,0.0-2.0-0.1,NA,"<i>Dylan didn't specify that the sauce thickened.</i> <br> <br> According to this statement, did the sauce thicken?",50,NA,237cb5f0-49d0-421f-8b03-601dbaa9e6c2,2024-09-14 15:34:52 CEST
6207,100,html-slider-response,7,67318,0.0-2.0-0.2,NA,"<i>Evan didn't debate that the airbag deployed.</i> <br> <br> According to this statement, did the airbag deploy?",50,NA,237cb5f0-49d0-421f-8b03-601dbaa9e6c2,2024-09-14 15:34:52 CEST
5122,0,html-slider-response,8,72441,0.0-2.0-0.3,NA,"<i>Taylor smiled when the vase didn't shatter.</i> <br> <br> According to this statement, did the vase shatter?",50,NA,237cb5f0-49d0-421f-8b03-601dbaa9e6c2,2024-09-14 15:34:52 CEST
8593,100,html-slider-response,9,81035,0.0-2.0-0.4,NA,"<i>Stevie didn't admit that the room darkened.</i> <br> <br> According to this statement, did the room darken?",50,NA,237cb5f0-49d0-421f-8b03-601dbaa9e6c2,2024-09-14 15:34:52 CEST
5495,100,html-slider-response,10,86531,0.0-2.0-0.5,NA,"<i>Frankie didn't showcase that the egg cracked.</i> <br> <br> According to this statement, did the egg crack?",50,NA,237cb5f0-49d0-421f-8b03-601dbaa9e6c2,2024-09-14 15:34:52 CEST
6079,100,html-slider-response,11,92611,0.0-2.0-0.6,NA,"<i>Blake didn't share that the knot tightened.</i> <br> <br> According to this statement, did the knot tighten?",50,NA,237cb5f0-49d0-421f-8b03-601dbaa9e6c2,2024-09-14 15:34:52 CEST
4667,100,html-slider-response,12,97279,0.0-2.0-0.7,NA,"<i>Morgan didn't record that the computer restarted.</i> <br> <br> According to this statement, did the computer restart?",50,NA,237cb5f0-49d0-421f-8b03-601dbaa9e6c2,2024-09-14 15:34:52 CEST
4435,100,html-slider-response,13,101715,0.0-2.0-0.8,NA,"<i>Harper didn't underline that the balloon popped.</i> <br> <br> According to this statement, did the balloon pop?",50,NA,237cb5f0-49d0-421f-8b03-601dbaa9e6c2,2024-09-14 15:34:52 CEST
4153,100,html-slider-response,14,105869,0.0-2.0-0.9,NA,"<i>Charlie didn't tweet that the paper burned.</i> <br> <br> According to this statement, did the paper burn?",50,NA,237cb5f0-49d0-421f-8b03-601dbaa9e6c2,2024-09-14 15:34:52 CEST
5863,100,html-slider-response,15,111733,0.0-2.0-0.10,NA,"<i>Jamie didn't add that the bolt loosened.</i> <br> <br> According to this statement, did the bolt loosen?",50,NA,237cb5f0-49d0-421f-8b03-601dbaa9e6c2,2024-09-14 15:34:52 CEST
11969,100,html-slider-response,16,123703,0.0-2.0-0.11,NA,"<i>Jordan didn't whimper that the gate opened.</i> <br> <br> According to this statement, did the gate open?",50,NA,237cb5f0-49d0-421f-8b03-601dbaa9e6c2,2024-09-14 15:34:52 CEST
4967,100,html-slider-response,17,128671,0.0-2.0-0.12,NA,"<i>Alex didn't fall when the cane broke.</i> <br> <br> According to this statement, did the cane break?",50,NA,237cb5f0-49d0-421f-8b03-601dbaa9e6c2,2024-09-14 15:34:52 CEST
12192,"{""P0_Q0"":null,""age"":""52"",""gender"":""female"",""language"":""yes"",""AE"":""yes"",""comments"":""""}",survey,18,140912,0.0-3.0,NA,NA,NA,[],237cb5f0-49d0-421f-8b03-601dbaa9e6c2,2024-09-14 15:34:52 CEST
12990,"{""Q0"":""Jessica""}",survey-text,0,13032,0.0-0.0-0.0,TRUE,NA,NA,NA,0269003c-0abc-402b-8a34-3dbbf2641f74,2024-09-14 15:35:18 CEST
2197,0,html-button-response,1,15234,0.0-0.0-3.0-0.0,NA,<p style='text-align:left'><b> Correct response! You are a human :) </b><br><br></p>,NA,NA,0269003c-0abc-402b-8a34-3dbbf2641f74,2024-09-14 15:35:18 CEST
19526,0,html-button-response,2,34766,0.0-1.0,NA,"<h3>Welcome!</h3>  <p style='text-align:left'>Please read the following instructions carefully.</p>  <p style='text-align:left'>In this experiment, you will read 13 statements followed by a question, as in the example below:</p>  <div style='display: flex; justify-content: center;'>    <div style='white-space: nowrap; text-align: left;'>      <p style='text-align:left'> <i>Robin didn't believe that the table wobbled.</i> </p>      <p style='text-align:left'> According to this statement, did the table wobble? </p>    </div>  </div>  <p style='text-align:left'>To answer the question, you will use a slider marked 'no' at one end and 'yes' at the other.</p>  <p style='text-align:left'>The experiment will take about 2.5 minutes and you will be paid £0.39.</p>  <p style='text-align:left' font size=""1"">By clicking the button below, you agree to participate in this experiment conducted by researchers at the University of Stuttgart. You may withdraw from the experiment at any time. The data collected will be anonymous and confidential. If you have any questions, you can contact the requester through Prolific or by writing directly to st166874@stud.uni-stuttgart.de.</p>",NA,NA,0269003c-0abc-402b-8a34-3dbbf2641f74,2024-09-14 15:35:18 CEST
7820,100,html-slider-response,3,42591,0.0-2.0-0.0,NA,"<i>Jamie didn't fuss that the room darkened.</i> <br> <br> According to this statement, did the room darken?",50,NA,0269003c-0abc-402b-8a34-3dbbf2641f74,2024-09-14 15:35:18 CEST
18834,46,html-slider-response,4,61430,0.0-2.0-0.1,NA,"<i>Evan didn't blog that the egg cracked.</i> <br> <br> According to this statement, did the egg crack?",50,NA,0269003c-0abc-402b-8a34-3dbbf2641f74,2024-09-14 15:35:18 CEST
9857,0,html-slider-response,5,71290,0.0-2.0-0.2,NA,"<i>Taylor smiled when the vase didn't shatter.</i> <br> <br> According to this statement, did the vase shatter?",50,NA,0269003c-0abc-402b-8a34-3dbbf2641f74,2024-09-14 15:35:18 CEST
15377,44,html-slider-response,6,86672,0.0-2.0-0.3,NA,"<i>Reese didn't reaffirm that the factory closed.</i> <br> <br> According to this statement, did the factory close?",50,NA,0269003c-0abc-402b-8a34-3dbbf2641f74,2024-09-14 15:35:18 CEST
10918,47,html-slider-response,7,97593,0.0-2.0-0.4,NA,"<i>Morgan didn't warn that the sauce thickened.</i> <br> <br> According to this statement, did the sauce thicken?",50,NA,0269003c-0abc-402b-8a34-3dbbf2641f74,2024-09-14 15:35:18 CEST
9106,77,html-slider-response,8,106703,0.0-2.0-0.5,NA,"<i>Jordan didn't divulge that the balloon popped.</i> <br> <br> According to this statement, did the balloon pop?",50,NA,0269003c-0abc-402b-8a34-3dbbf2641f74,2024-09-14 15:35:18 CEST
10127,48,html-slider-response,9,116834,0.0-2.0-0.6,NA,"<i>Frankie didn't insist that the gate opened.</i> <br> <br> According to this statement, did the gate open?",50,NA,0269003c-0abc-402b-8a34-3dbbf2641f74,2024-09-14 15:35:18 CEST
7753,100,html-slider-response,10,124590,0.0-2.0-0.7,NA,"<i>Alex didn't fall when the cane broke.</i> <br> <br> According to this statement, did the cane break?",50,NA,0269003c-0abc-402b-8a34-3dbbf2641f74,2024-09-14 15:35:18 CEST
20915,48,html-slider-response,11,145507,0.0-2.0-0.8,NA,"<i>Harper didn't signify that the airbag deployed.</i> <br> <br> According to this statement, did the airbag deploy?",50,NA,0269003c-0abc-402b-8a34-3dbbf2641f74,2024-09-14 15:35:18 CEST
7814,47,html-slider-response,12,153323,0.0-2.0-0.9,NA,"<i>Dylan didn't document that the computer restarted.</i> <br> <br> According to this statement, did the computer restart?",50,NA,0269003c-0abc-402b-8a34-3dbbf2641f74,2024-09-14 15:35:18 CEST
7251,46,html-slider-response,13,160577,0.0-2.0-0.10,NA,"<i>Stevie didn't contend that the knot tightened.</i> <br> <br> According to this statement, did the knot tighten?",50,NA,0269003c-0abc-402b-8a34-3dbbf2641f74,2024-09-14 15:35:18 CEST
6430,47,html-slider-response,14,167010,0.0-2.0-0.11,NA,"<i>Blake didn't log that the bolt loosened.</i> <br> <br> According to this statement, did the bolt loosen?",50,NA,0269003c-0abc-402b-8a34-3dbbf2641f74,2024-09-14 15:35:18 CEST
4953,47,html-slider-response,15,171966,0.0-2.0-0.12,NA,"<i>Charlie didn't submit that the paper burned.</i> <br> <br> According to this statement, did the paper burn?",50,NA,0269003c-0abc-402b-8a34-3dbbf2641f74,2024-09-14 15:35:18 CEST
14681,"{""P0_Q0"":null,""age"":""67"",""gender"":""male"",""language"":""yes"",""AE"":""yes"",""comments"":""""}",survey,16,186786,0.0-3.0,NA,NA,NA,[],0269003c-0abc-402b-8a34-3dbbf2641f74,2024-09-14 15:35:18 CEST
11283,"{""Q0"":""Linda""}",survey-text,0,11298,0.0-0.0-0.0,TRUE,NA,NA,NA,7426c3b1-64ff-4e61-b281-de3f65d61a93,2024-09-14 15:36:33 CEST
1221,0,html-button-response,1,12521,0.0-0.0-3.0-0.0,NA,<p style='text-align:left'><b> Correct response! You are a human :) </b><br><br></p>,NA,NA,7426c3b1-64ff-4e61-b281-de3f65d61a93,2024-09-14 15:36:33 CEST
2808,0,html-button-response,2,15329,0.0-1.0,NA,"<h3>Welcome!</h3>  <p style='text-align:left'>Please read the following instructions carefully.</p>  <p style='text-align:left'>In this experiment, you will read 13 statements followed by a question, as in the example below:</p>  <div style='display: flex; justify-content: center;'>    <div style='white-space: nowrap; text-align: left;'>      <p style='text-align:left'> <i>Robin didn't believe that the table wobbled.</i> </p>      <p style='text-align:left'> According to this statement, did the table wobble? </p>    </div>  </div>  <p style='text-align:left'>To answer the question, you will use a slider marked 'no' at one end and 'yes' at the other.</p>  <p style='text-align:left'>The experiment will take about 2.5 minutes and you will be paid £0.39.</p>  <p style='text-align:left' font size=""1"">By clicking the button below, you agree to participate in this experiment conducted by researchers at the University of Stuttgart. You may withdraw from the experiment at any time. The data collected will be anonymous and confidential. If you have any questions, you can contact the requester through Prolific or by writing directly to st166874@stud.uni-stuttgart.de.</p>",NA,NA,7426c3b1-64ff-4e61-b281-de3f65d61a93,2024-09-14 15:36:33 CEST
8191,0,html-slider-response,3,23521,0.0-2.0-0.0,NA,"<i>Dylan didn't clarify that the computer restarted.</i> <br> <br> According to this statement, did the computer restart?",50,NA,7426c3b1-64ff-4e61-b281-de3f65d61a93,2024-09-14 15:36:33 CEST
4695,100,html-slider-response,4,28218,0.0-2.0-0.1,NA,"<i>Blake didn't disclose that the knot tightened.</i> <br> <br> According to this statement, did the knot tighten?",50,NA,7426c3b1-64ff-4e61-b281-de3f65d61a93,2024-09-14 15:36:33 CEST
5663,2,html-slider-response,5,33883,0.0-2.0-0.2,NA,"<i>Jamie didn't contend that the egg cracked.</i> <br> <br> According to this statement, did the egg crack?",50,NA,7426c3b1-64ff-4e61-b281-de3f65d61a93,2024-09-14 15:36:33 CEST
3671,0,html-slider-response,6,37554,0.0-2.0-0.3,NA,"<i>Jordan didn't shout that the gate opened.</i> <br> <br> According to this statement, did the gate open?",50,NA,7426c3b1-64ff-4e61-b281-de3f65d61a93,2024-09-14 15:36:33 CEST
2848,0,html-slider-response,7,40403,0.0-2.0-0.4,NA,"<i>Stevie didn't certify that the factory closed.</i> <br> <br> According to this statement, did the factory close?",50,NA,7426c3b1-64ff-4e61-b281-de3f65d61a93,2024-09-14 15:36:33 CEST
4855,100,html-slider-response,8,45258,0.0-2.0-0.5,NA,"<i>Harper didn't contest that the paper burned.</i> <br> <br> According to this statement, did the paper burn?",50,NA,7426c3b1-64ff-4e61-b281-de3f65d61a93,2024-09-14 15:36:33 CEST
5008,100,html-slider-response,9,50267,0.0-2.0-0.6,NA,"<i>Morgan didn't apologize that the room darkened.</i> <br> <br> According to this statement, did the room darken?",50,NA,7426c3b1-64ff-4e61-b281-de3f65d61a93,2024-09-14 15:36:33 CEST
4727,0,html-slider-response,10,54994,0.0-2.0-0.7,NA,"<i>Taylor smiled when the vase didn't shatter.</i> <br> <br> According to this statement, did the vase shatter?",50,NA,7426c3b1-64ff-4e61-b281-de3f65d61a93,2024-09-14 15:36:33 CEST
4543,100,html-slider-response,11,59538,0.0-2.0-0.8,NA,"<i>Frankie didn't uncover that the bolt loosened.</i> <br> <br> According to this statement, did the bolt loosen?",50,NA,7426c3b1-64ff-4e61-b281-de3f65d61a93,2024-09-14 15:36:33 CEST
6199,100,html-slider-response,12,65738,0.0-2.0-0.9,NA,"<i>Charlie didn't rant that the airbag deployed.</i> <br> <br> According to this statement, did the airbag deploy?",50,NA,7426c3b1-64ff-4e61-b281-de3f65d61a93,2024-09-14 15:36:33 CEST
4312,100,html-slider-response,13,70051,0.0-2.0-0.10,NA,"<i>Evan didn't babble that the sauce thickened.</i> <br> <br> According to this statement, did the sauce thicken?",50,NA,7426c3b1-64ff-4e61-b281-de3f65d61a93,2024-09-14 15:36:33 CEST
4606,100,html-slider-response,14,74657,0.0-2.0-0.11,NA,"<i>Reese didn't radio that the balloon popped.</i> <br> <br> According to this statement, did the balloon pop?",50,NA,7426c3b1-64ff-4e61-b281-de3f65d61a93,2024-09-14 15:36:33 CEST
41824,100,html-slider-response,15,116483,0.0-2.0-0.12,NA,"<i>Alex didn't fall when the cane broke.</i> <br> <br> According to this statement, did the cane break?",50,NA,7426c3b1-64ff-4e61-b281-de3f65d61a93,2024-09-14 15:36:33 CEST
10755,"{""P0_Q0"":null,""age"":""33"",""gender"":""female"",""language"":""yes"",""AE"":""yes"",""comments"":""""}",survey,16,127284,0.0-3.0,NA,NA,NA,[],7426c3b1-64ff-4e61-b281-de3f65d61a93,2024-09-14 15:36:33 CEST
9899,"{""Q0"":""Mary""}",survey-text,0,9906,0.0-0.0-0.0,TRUE,NA,NA,NA,cef4cef9-ade4-456f-85cb-212cb8542e4a,2024-09-14 15:38:37 CEST
1160,0,html-button-response,1,11068,0.0-0.0-3.0-0.0,NA,<p style='text-align:left'><b> Correct response! You are a human :) </b><br><br></p>,NA,NA,cef4cef9-ade4-456f-85cb-212cb8542e4a,2024-09-14 15:38:37 CEST
18547,0,html-button-response,2,29617,0.0-1.0,NA,"<h3>Welcome!</h3>  <p style='text-align:left'>Please read the following instructions carefully.</p>  <p style='text-align:left'>In this experiment, you will read 13 statements followed by a question, as in the example below:</p>  <div style='display: flex; justify-content: center;'>    <div style='white-space: nowrap; text-align: left;'>      <p style='text-align:left'> <i>Robin didn't believe that the table wobbled.</i> </p>      <p style='text-align:left'> According to this statement, did the table wobble? </p>    </div>  </div>  <p style='text-align:left'>To answer the question, you will use a slider marked 'no' at one end and 'yes' at the other.</p>  <p style='text-align:left'>The experiment will take about 2.5 minutes and you will be paid £0.39.</p>  <p style='text-align:left' font size=""1"">By clicking the button below, you agree to participate in this experiment conducted by researchers at the University of Stuttgart. You may withdraw from the experiment at any time. The data collected will be anonymous and confidential. If you have any questions, you can contact the requester through Prolific or by writing directly to st166874@stud.uni-stuttgart.de.</p>",NA,NA,cef4cef9-ade4-456f-85cb-212cb8542e4a,2024-09-14 15:38:37 CEST
9572,0,html-slider-response,3,39191,0.0-2.0-0.0,NA,"<i>Harper didn't pretend that the computer restarted.</i> <br> <br> According to this statement, did the computer restart?",50,NA,cef4cef9-ade4-456f-85cb-212cb8542e4a,2024-09-14 15:38:37 CEST
4990,0,html-slider-response,4,44183,0.0-2.0-0.1,NA,"<i>Taylor smiled when the vase didn't shatter.</i> <br> <br> According to this statement, did the vase shatter?",50,NA,cef4cef9-ade4-456f-85cb-212cb8542e4a,2024-09-14 15:38:37 CEST
11114,100,html-slider-response,5,55298,0.0-2.0-0.2,NA,"<i>Blake didn't mention that the airbag deployed.</i> <br> <br> According to this statement, did the airbag deploy?",50,NA,cef4cef9-ade4-456f-85cb-212cb8542e4a,2024-09-14 15:38:37 CEST
11470,100,html-slider-response,6,66770,0.0-2.0-0.3,NA,"<i>Stevie didn't grunt that the sauce thickened.</i> <br> <br> According to this statement, did the sauce thicken?",50,NA,cef4cef9-ade4-456f-85cb-212cb8542e4a,2024-09-14 15:38:37 CEST
13143,100,html-slider-response,7,79916,0.0-2.0-0.4,NA,"<i>Reese didn't warrant that the gate opened.</i> <br> <br> According to this statement, did the gate open?",50,NA,cef4cef9-ade4-456f-85cb-212cb8542e4a,2024-09-14 15:38:37 CEST
11297,100,html-slider-response,8,91214,0.0-2.0-0.5,NA,"<i>Frankie didn't quip that the bolt loosened.</i> <br> <br> According to this statement, did the bolt loosen?",50,NA,cef4cef9-ade4-456f-85cb-212cb8542e4a,2024-09-14 15:38:37 CEST
7875,100,html-slider-response,9,99091,0.0-2.0-0.6,NA,"<i>Evan didn't question that the balloon popped.</i> <br> <br> According to this statement, did the balloon pop?",50,NA,cef4cef9-ade4-456f-85cb-212cb8542e4a,2024-09-14 15:38:37 CEST
7440,100,html-slider-response,10,106533,0.0-2.0-0.7,NA,"<i>Alex didn't fall when the cane broke.</i> <br> <br> According to this statement, did the cane break?",50,NA,cef4cef9-ade4-456f-85cb-212cb8542e4a,2024-09-14 15:38:37 CEST
16764,100,html-slider-response,11,123299,0.0-2.0-0.8,NA,"<i>Jamie didn't phone that the knot tightened.</i> <br> <br> According to this statement, did the knot tighten?",50,NA,cef4cef9-ade4-456f-85cb-212cb8542e4a,2024-09-14 15:38:37 CEST
10898,100,html-slider-response,12,134198,0.0-2.0-0.9,NA,"<i>Charlie didn't jest that the paper burned.</i> <br> <br> According to this statement, did the paper burn?",50,NA,cef4cef9-ade4-456f-85cb-212cb8542e4a,2024-09-14 15:38:37 CEST
7409,100,html-slider-response,13,141609,0.0-2.0-0.10,NA,"<i>Jordan didn't argue that the factory closed.</i> <br> <br> According to this statement, did the factory close?",50,NA,cef4cef9-ade4-456f-85cb-212cb8542e4a,2024-09-14 15:38:37 CEST
6495,0,html-slider-response,14,148105,0.0-2.0-0.11,NA,"<i>Dylan didn't demonstrate that the room darkened.</i> <br> <br> According to this statement, did the room darken?",50,NA,cef4cef9-ade4-456f-85cb-212cb8542e4a,2024-09-14 15:38:37 CEST
10230,100,html-slider-response,15,158336,0.0-2.0-0.12,NA,"<i>Morgan didn't retort that the egg cracked.</i> <br> <br> According to this statement, did the egg crack?",50,NA,cef4cef9-ade4-456f-85cb-212cb8542e4a,2024-09-14 15:38:37 CEST
10953,"{""P0_Q0"":null,""age"":""31"",""gender"":""female"",""language"":""yes"",""AE"":""yes"",""comments"":""""}",survey,16,169329,0.0-3.0,NA,NA,NA,[],cef4cef9-ade4-456f-85cb-212cb8542e4a,2024-09-14 15:38:37 CEST
7442,"{""Q0"":""Sarah""}",survey-text,0,7453,0.0-0.0-0.0,TRUE,NA,NA,NA,739bd392-7254-4c2e-a0e2-7e0dfff8d818,2024-09-18 14:02:49 CEST
1810,0,html-button-response,1,9264,0.0-0.0-3.0-0.0,NA,<p style='text-align:left'><b> Correct response! You are a human :) </b><br><br></p>,NA,NA,739bd392-7254-4c2e-a0e2-7e0dfff8d818,2024-09-18 14:02:49 CEST
10127,0,html-button-response,2,19392,0.0-1.0,NA,"<h3>Welcome!</h3>  <p style='text-align:left'>Please read the following instructions carefully.</p>  <p style='text-align:left'>In this experiment, you will read 13 statements followed by a question, as in the example below:</p>  <div style='display: flex; justify-content: center;'>    <div style='white-space: nowrap; text-align: left;'>      <p style='text-align:left'> <i>Robin didn't believe that the table wobbled.</i> </p>      <p style='text-align:left'> According to this statement, did the table wobble? </p>    </div>  </div>  <p style='text-align:left'>To answer the question, you will use a slider marked 'no' at one end and 'yes' at the other.</p>  <p style='text-align:left'>The experiment will take about 2.5 minutes and you will be paid £0.39.</p>  <p style='text-align:left' font size=""1"">By clicking the button below, you agree to participate in this experiment conducted by researchers at the University of Stuttgart. You may withdraw from the experiment at any time. The data collected will be anonymous and confidential. If you have any questions, you can contact the requester through Prolific or by writing directly to st166874@stud.uni-stuttgart.de.</p>",NA,NA,739bd392-7254-4c2e-a0e2-7e0dfff8d818,2024-09-18 14:02:49 CEST
5591,0,html-slider-response,3,24984,0.0-2.0-0.0,NA,"<i>Taylor smiled when the vase didn't shatter.</i> <br> <br> According to this statement, did the vase shatter?",50,NA,739bd392-7254-4c2e-a0e2-7e0dfff8d818,2024-09-18 14:02:49 CEST
5445,100,html-slider-response,4,30430,0.0-2.0-0.1,NA,"<i>Alex didn't fall when the cane broke.</i> <br> <br> According to this statement, did the cane break?",50,NA,739bd392-7254-4c2e-a0e2-7e0dfff8d818,2024-09-18 14:02:49 CEST
5693,100,html-slider-response,5,36124,0.0-2.0-0.2,NA,"<i>Stevie didn't fax that the room darkened.</i> <br> <br> According to this statement, did the room darken?",50,NA,739bd392-7254-4c2e-a0e2-7e0dfff8d818,2024-09-18 14:02:49 CEST
4221,100,html-slider-response,6,40346,0.0-2.0-0.3,NA,"<i>Dylan didn't mention that the bolt loosened.</i> <br> <br> According to this statement, did the bolt loosen?",50,NA,739bd392-7254-4c2e-a0e2-7e0dfff8d818,2024-09-18 14:02:49 CEST
3337,100,html-slider-response,7,43684,0.0-2.0-0.4,NA,"<i>Frankie didn't disclose that the knot tightened.</i> <br> <br> According to this statement, did the knot tighten?",50,NA,739bd392-7254-4c2e-a0e2-7e0dfff8d818,2024-09-18 14:02:49 CEST
5221,100,html-slider-response,8,48906,0.0-2.0-0.5,NA,"<i>Evan didn't jest that the balloon popped.</i> <br> <br> According to this statement, did the balloon pop?",50,NA,739bd392-7254-4c2e-a0e2-7e0dfff8d818,2024-09-18 14:02:49 CEST
5375,100,html-slider-response,9,54282,0.0-2.0-0.6,NA,"<i>Blake didn't uphold that the airbag deployed.</i> <br> <br> According to this statement, did the airbag deploy?",50,NA,739bd392-7254-4c2e-a0e2-7e0dfff8d818,2024-09-18 14:02:49 CEST
4073,100,html-slider-response,10,58356,0.0-2.0-0.7,NA,"<i>Morgan didn't joke that the computer restarted.</i> <br> <br> According to this statement, did the computer restart?",50,NA,739bd392-7254-4c2e-a0e2-7e0dfff8d818,2024-09-18 14:02:49 CEST
6925,53,html-slider-response,11,65282,0.0-2.0-0.8,NA,"<i>Reese didn't spout that the sauce thickened.</i> <br> <br> According to this statement, did the sauce thicken?",50,NA,739bd392-7254-4c2e-a0e2-7e0dfff8d818,2024-09-18 14:02:49 CEST
4190,100,html-slider-response,12,69473,0.0-2.0-0.9,NA,"<i>Harper didn't boast that the factory closed.</i> <br> <br> According to this statement, did the factory close?",50,NA,739bd392-7254-4c2e-a0e2-7e0dfff8d818,2024-09-18 14:02:49 CEST
5051,100,html-slider-response,13,74525,0.0-2.0-0.10,NA,"<i>Jamie didn't reassert that the paper burned.</i> <br> <br> According to this statement, did the paper burn?",50,NA,739bd392-7254-4c2e-a0e2-7e0dfff8d818,2024-09-18 14:02:49 CEST
3585,100,html-slider-response,14,78110,0.0-2.0-0.11,NA,"<i>Jordan didn't publicize that the egg cracked.</i> <br> <br> According to this statement, did the egg crack?",50,NA,739bd392-7254-4c2e-a0e2-7e0dfff8d818,2024-09-18 14:02:49 CEST
3385,100,html-slider-response,15,81497,0.0-2.0-0.12,NA,"<i>Charlie didn't relate that the gate opened.</i> <br> <br> According to this statement, did the gate open?",50,NA,739bd392-7254-4c2e-a0e2-7e0dfff8d818,2024-09-18 14:02:49 CEST
8569,"{""P0_Q0"":null,""age"":""34"",""gender"":""female"",""language"":""yes"",""AE"":""yes"",""comments"":""""}",survey,16,90104,0.0-3.0,NA,NA,NA,[],739bd392-7254-4c2e-a0e2-7e0dfff8d818,2024-09-18 14:02:49 CEST
18499,"{""Q0"":""Elizabeth""}",survey-text,0,18507,0.0-0.0-0.0,TRUE,NA,NA,NA,e0cf1f98-0bf1-4090-8b1a-92783ec4ccfa,2024-09-18 14:04:53 CEST
2329,0,html-button-response,1,20839,0.0-0.0-3.0-0.0,NA,<p style='text-align:left'><b> Correct response! You are a human :) </b><br><br></p>,NA,NA,e0cf1f98-0bf1-4090-8b1a-92783ec4ccfa,2024-09-18 14:04:53 CEST
15595,0,html-button-response,2,36435,0.0-1.0,NA,"<h3>Welcome!</h3>  <p style='text-align:left'>Please read the following instructions carefully.</p>  <p style='text-align:left'>In this experiment, you will read 13 statements followed by a question, as in the example below:</p>  <div style='display: flex; justify-content: center;'>    <div style='white-space: nowrap; text-align: left;'>      <p style='text-align:left'> <i>Robin didn't believe that the table wobbled.</i> </p>      <p style='text-align:left'> According to this statement, did the table wobble? </p>    </div>  </div>  <p style='text-align:left'>To answer the question, you will use a slider marked 'no' at one end and 'yes' at the other.</p>  <p style='text-align:left'>The experiment will take about 2.5 minutes and you will be paid £0.39.</p>  <p style='text-align:left' font size=""1"">By clicking the button below, you agree to participate in this experiment conducted by researchers at the University of Stuttgart. You may withdraw from the experiment at any time. The data collected will be anonymous and confidential. If you have any questions, you can contact the requester through Prolific or by writing directly to st166874@stud.uni-stuttgart.de.</p>",NA,NA,e0cf1f98-0bf1-4090-8b1a-92783ec4ccfa,2024-09-18 14:04:53 CEST
17945,85,html-slider-response,3,54381,0.0-2.0-0.0,NA,"<i>Reese didn't flaunt that the balloon popped.</i> <br> <br> According to this statement, did the balloon pop?",50,NA,e0cf1f98-0bf1-4090-8b1a-92783ec4ccfa,2024-09-18 14:04:53 CEST
8981,100,html-slider-response,4,63364,0.0-2.0-0.1,NA,"<i>Dylan didn't confess that the egg cracked.</i> <br> <br> According to this statement, did the egg crack?",50,NA,e0cf1f98-0bf1-4090-8b1a-92783ec4ccfa,2024-09-18 14:04:53 CEST
20126,31,html-slider-response,5,83492,0.0-2.0-0.2,NA,"<i>Harper didn't specify that the bolt loosened.</i> <br> <br> According to this statement, did the bolt loosen?",50,NA,e0cf1f98-0bf1-4090-8b1a-92783ec4ccfa,2024-09-18 14:04:53 CEST
10185,48,html-slider-response,6,93678,0.0-2.0-0.3,NA,"<i>Morgan didn't tease that the factory closed.</i> <br> <br> According to this statement, did the factory close?",50,NA,e0cf1f98-0bf1-4090-8b1a-92783ec4ccfa,2024-09-18 14:04:53 CEST
9549,77,html-slider-response,7,103228,0.0-2.0-0.4,NA,"<i>Charlie didn't debate that the paper burned.</i> <br> <br> According to this statement, did the paper burn?",50,NA,e0cf1f98-0bf1-4090-8b1a-92783ec4ccfa,2024-09-18 14:04:53 CEST
9609,100,html-slider-response,8,112839,0.0-2.0-0.5,NA,"<i>Alex didn't fall when the cane broke.</i> <br> <br> According to this statement, did the cane break?",50,NA,e0cf1f98-0bf1-4090-8b1a-92783ec4ccfa,2024-09-18 14:04:53 CEST
8058,92,html-slider-response,9,120899,0.0-2.0-0.6,NA,"<i>Evan didn't describe that the room darkened.</i> <br> <br> According to this statement, did the room darken?",50,NA,e0cf1f98-0bf1-4090-8b1a-92783ec4ccfa,2024-09-18 14:04:53 CEST
10460,89,html-slider-response,10,131360,0.0-2.0-0.7,NA,"<i>Stevie didn't uncover that the sauce thickened.</i> <br> <br> According to this statement, did the sauce thicken?",50,NA,e0cf1f98-0bf1-4090-8b1a-92783ec4ccfa,2024-09-18 14:04:53 CEST
7334,100,html-slider-response,11,138695,0.0-2.0-0.8,NA,"<i>Jamie didn't document that the airbag deployed.</i> <br> <br> According to this statement, did the airbag deploy?",50,NA,e0cf1f98-0bf1-4090-8b1a-92783ec4ccfa,2024-09-18 14:04:53 CEST
11952,51,html-slider-response,12,150648,0.0-2.0-0.9,NA,"<i>Blake didn't clarify that the computer restarted.</i> <br> <br> According to this statement, did the computer restart?",50,NA,e0cf1f98-0bf1-4090-8b1a-92783ec4ccfa,2024-09-18 14:04:53 CEST
8689,92,html-slider-response,13,159338,0.0-2.0-0.10,NA,"<i>Jordan didn't dispel that the knot tightened.</i> <br> <br> According to this statement, did the knot tighten?",50,NA,e0cf1f98-0bf1-4090-8b1a-92783ec4ccfa,2024-09-18 14:04:53 CEST
10752,0,html-slider-response,14,170091,0.0-2.0-0.11,NA,"<i>Taylor smiled when the vase didn't shatter.</i> <br> <br> According to this statement, did the vase shatter?",50,NA,e0cf1f98-0bf1-4090-8b1a-92783ec4ccfa,2024-09-18 14:04:53 CEST
13175,100,html-slider-response,15,183268,0.0-2.0-0.12,NA,"<i>Frankie didn't gab that the gate opened.</i> <br> <br> According to this statement, did the gate open?",50,NA,e0cf1f98-0bf1-4090-8b1a-92783ec4ccfa,2024-09-18 14:04:53 CEST
11153,"{""P0_Q0"":null,""age"":""36"",""gender"":""male"",""language"":""yes"",""AE"":""yes"",""comments"":""""}",survey,16,194454,0.0-3.0,NA,NA,NA,[],e0cf1f98-0bf1-4090-8b1a-92783ec4ccfa,2024-09-18 14:04:53 CEST
7583,"{""Q0"":""Sarah""}",survey-text,0,7595,0.0-0.0-0.0,TRUE,NA,NA,NA,8fca6f9a-ba6c-4197-8a5f-b7d32189dfb0,2024-09-18 14:05:56 CEST
1374,0,html-button-response,1,8973,0.0-0.0-3.0-0.0,NA,<p style='text-align:left'><b> Correct response! You are a human :) </b><br><br></p>,NA,NA,8fca6f9a-ba6c-4197-8a5f-b7d32189dfb0,2024-09-18 14:05:56 CEST
1464,0,html-button-response,2,10441,0.0-1.0,NA,"<h3>Welcome!</h3>  <p style='text-align:left'>Please read the following instructions carefully.</p>  <p style='text-align:left'>In this experiment, you will read 13 statements followed by a question, as in the example below:</p>  <div style='display: flex; justify-content: center;'>    <div style='white-space: nowrap; text-align: left;'>      <p style='text-align:left'> <i>Robin didn't believe that the table wobbled.</i> </p>      <p style='text-align:left'> According to this statement, did the table wobble? </p>    </div>  </div>  <p style='text-align:left'>To answer the question, you will use a slider marked 'no' at one end and 'yes' at the other.</p>  <p style='text-align:left'>The experiment will take about 2.5 minutes and you will be paid £0.39.</p>  <p style='text-align:left' font size=""1"">By clicking the button below, you agree to participate in this experiment conducted by researchers at the University of Stuttgart. You may withdraw from the experiment at any time. The data collected will be anonymous and confidential. If you have any questions, you can contact the requester through Prolific or by writing directly to st166874@stud.uni-stuttgart.de.</p>",NA,NA,8fca6f9a-ba6c-4197-8a5f-b7d32189dfb0,2024-09-18 14:05:56 CEST
10440,96,html-slider-response,3,20886,0.0-2.0-0.0,NA,"<i>Alex didn't fall when the cane broke.</i> <br> <br> According to this statement, did the cane break?",50,NA,8fca6f9a-ba6c-4197-8a5f-b7d32189dfb0,2024-09-18 14:05:56 CEST
5853,100,html-slider-response,4,26743,0.0-2.0-0.1,NA,"<i>Dylan didn't pout that the balloon popped.</i> <br> <br> According to this statement, did the balloon pop?",50,NA,8fca6f9a-ba6c-4197-8a5f-b7d32189dfb0,2024-09-18 14:05:56 CEST
4105,95,html-slider-response,5,30849,0.0-2.0-0.2,NA,"<i>Charlie didn't denounce that the paper burned.</i> <br> <br> According to this statement, did the paper burn?",50,NA,8fca6f9a-ba6c-4197-8a5f-b7d32189dfb0,2024-09-18 14:05:56 CEST
5122,90,html-slider-response,6,35974,0.0-2.0-0.3,NA,"<i>Stevie didn't whimper that the knot tightened.</i> <br> <br> According to this statement, did the knot tighten?",50,NA,8fca6f9a-ba6c-4197-8a5f-b7d32189dfb0,2024-09-18 14:05:56 CEST
6671,89,html-slider-response,7,42648,0.0-2.0-0.4,NA,"<i>Frankie didn't summarize that the room darkened.</i> <br> <br> According to this statement, did the room darken?",50,NA,8fca6f9a-ba6c-4197-8a5f-b7d32189dfb0,2024-09-18 14:05:56 CEST
4903,89,html-slider-response,8,47555,0.0-2.0-0.5,NA,"<i>Jordan didn't swear that the sauce thickened.</i> <br> <br> According to this statement, did the sauce thicken?",50,NA,8fca6f9a-ba6c-4197-8a5f-b7d32189dfb0,2024-09-18 14:05:56 CEST
3153,94,html-slider-response,9,50710,0.0-2.0-0.6,NA,"<i>Morgan didn't exclaim that the airbag deployed.</i> <br> <br> According to this statement, did the airbag deploy?",50,NA,8fca6f9a-ba6c-4197-8a5f-b7d32189dfb0,2024-09-18 14:05:56 CEST
2099,88,html-slider-response,10,52812,0.0-2.0-0.7,NA,"<i>Reese didn't weep that the factory closed.</i> <br> <br> According to this statement, did the factory close?",50,NA,8fca6f9a-ba6c-4197-8a5f-b7d32189dfb0,2024-09-18 14:05:56 CEST
4270,95,html-slider-response,11,57085,0.0-2.0-0.8,NA,"<i>Taylor smiled when the vase didn't shatter.</i> <br> <br> According to this statement, did the vase shatter?",50,NA,8fca6f9a-ba6c-4197-8a5f-b7d32189dfb0,2024-09-18 14:05:56 CEST
3967,93,html-slider-response,12,61056,0.0-2.0-0.9,NA,"<i>Evan didn't remark that the bolt loosened.</i> <br> <br> According to this statement, did the bolt loosen?",50,NA,8fca6f9a-ba6c-4197-8a5f-b7d32189dfb0,2024-09-18 14:05:56 CEST
2817,93,html-slider-response,13,63875,0.0-2.0-0.10,NA,"<i>Harper didn't maintain that the egg cracked.</i> <br> <br> According to this statement, did the egg crack?",50,NA,8fca6f9a-ba6c-4197-8a5f-b7d32189dfb0,2024-09-18 14:05:56 CEST
1882,100,html-slider-response,14,65761,0.0-2.0-0.11,NA,"<i>Jamie didn't divulge that the computer restarted.</i> <br> <br> According to this statement, did the computer restart?",50,NA,8fca6f9a-ba6c-4197-8a5f-b7d32189dfb0,2024-09-18 14:05:56 CEST
1951,100,html-slider-response,15,67715,0.0-2.0-0.12,NA,"<i>Blake didn't scoff that the gate opened.</i> <br> <br> According to this statement, did the gate open?",50,NA,8fca6f9a-ba6c-4197-8a5f-b7d32189dfb0,2024-09-18 14:05:56 CEST
15056,"{""P0_Q0"":null,""age"":""24"",""gender"":""female"",""language"":""yes"",""AE"":""yes"",""comments"":""""}",survey,16,82873,0.0-3.0,NA,NA,NA,[],8fca6f9a-ba6c-4197-8a5f-b7d32189dfb0,2024-09-18 14:05:56 CEST
5502,"{""Q0"":""Margaret""}",survey-text,0,5653,0.0-0.0-0.0,TRUE,NA,NA,NA,a0e5be70-c78d-4d54-9347-543002d252c9,2024-09-18 14:09:14 CEST
1526,0,html-button-response,1,7180,0.0-0.0-3.0-0.0,NA,<p style='text-align:left'><b> Correct response! You are a human :) </b><br><br></p>,NA,NA,a0e5be70-c78d-4d54-9347-543002d252c9,2024-09-18 14:09:14 CEST
11716,0,html-button-response,2,18897,0.0-1.0,NA,"<h3>Welcome!</h3>  <p style='text-align:left'>Please read the following instructions carefully.</p>  <p style='text-align:left'>In this experiment, you will read 13 statements followed by a question, as in the example below:</p>  <div style='display: flex; justify-content: center;'>    <div style='white-space: nowrap; text-align: left;'>      <p style='text-align:left'> <i>Robin didn't believe that the table wobbled.</i> </p>      <p style='text-align:left'> According to this statement, did the table wobble? </p>    </div>  </div>  <p style='text-align:left'>To answer the question, you will use a slider marked 'no' at one end and 'yes' at the other.</p>  <p style='text-align:left'>The experiment will take about 2.5 minutes and you will be paid £0.39.</p>  <p style='text-align:left' font size=""1"">By clicking the button below, you agree to participate in this experiment conducted by researchers at the University of Stuttgart. You may withdraw from the experiment at any time. The data collected will be anonymous and confidential. If you have any questions, you can contact the requester through Prolific or by writing directly to st166874@stud.uni-stuttgart.de.</p>",NA,NA,a0e5be70-c78d-4d54-9347-543002d252c9,2024-09-18 14:09:14 CEST
10199,98,html-slider-response,3,29099,0.0-2.0-0.0,NA,"<i>Jordan didn't advertise that the airbag deployed.</i> <br> <br> According to this statement, did the airbag deploy?",50,NA,a0e5be70-c78d-4d54-9347-543002d252c9,2024-09-18 14:09:14 CEST
4738,99,html-slider-response,4,33839,0.0-2.0-0.1,NA,"<i>Dylan didn't expose that the paper burned.</i> <br> <br> According to this statement, did the paper burn?",50,NA,a0e5be70-c78d-4d54-9347-543002d252c9,2024-09-18 14:09:14 CEST
4809,98,html-slider-response,5,38649,0.0-2.0-0.2,NA,"<i>Frankie didn't reaffirm that the knot tightened.</i> <br> <br> According to this statement, did the knot tighten?",50,NA,a0e5be70-c78d-4d54-9347-543002d252c9,2024-09-18 14:09:14 CEST
3703,99,html-slider-response,6,42353,0.0-2.0-0.3,NA,"<i>Jamie didn't narrate that the room darkened.</i> <br> <br> According to this statement, did the room darken?",50,NA,a0e5be70-c78d-4d54-9347-543002d252c9,2024-09-18 14:09:14 CEST
4171,99,html-slider-response,7,46526,0.0-2.0-0.4,NA,"<i>Charlie didn't gasp that the balloon popped.</i> <br> <br> According to this statement, did the balloon pop?",50,NA,a0e5be70-c78d-4d54-9347-543002d252c9,2024-09-18 14:09:14 CEST
7619,3,html-slider-response,8,54147,0.0-2.0-0.5,NA,"<i>Evan didn't cheer that the egg cracked.</i> <br> <br> According to this statement, did the egg crack?",50,NA,a0e5be70-c78d-4d54-9347-543002d252c9,2024-09-18 14:09:14 CEST
6770,100,html-slider-response,9,60918,0.0-2.0-0.6,NA,"<i>Harper didn't lie that the bolt loosened.</i> <br> <br> According to this statement, did the bolt loosen?",50,NA,a0e5be70-c78d-4d54-9347-543002d252c9,2024-09-18 14:09:14 CEST
3607,99,html-slider-response,10,64527,0.0-2.0-0.7,NA,"<i>Stevie didn't joke that the computer restarted.</i> <br> <br> According to this statement, did the computer restart?",50,NA,a0e5be70-c78d-4d54-9347-543002d252c9,2024-09-18 14:09:14 CEST
3405,2,html-slider-response,11,67933,0.0-2.0-0.8,NA,"<i>Morgan didn't dispel that the factory closed.</i> <br> <br> According to this statement, did the factory close?",50,NA,a0e5be70-c78d-4d54-9347-543002d252c9,2024-09-18 14:09:14 CEST
6413,4,html-slider-response,12,74348,0.0-2.0-0.9,NA,"<i>Blake didn't preach that the sauce thickened.</i> <br> <br> According to this statement, did the sauce thicken?",50,NA,a0e5be70-c78d-4d54-9347-543002d252c9,2024-09-18 14:09:14 CEST
4204,4,html-slider-response,13,78554,0.0-2.0-0.10,NA,"<i>Taylor smiled when the vase didn't shatter.</i> <br> <br> According to this statement, did the vase shatter?",50,NA,a0e5be70-c78d-4d54-9347-543002d252c9,2024-09-18 14:09:14 CEST
5556,100,html-slider-response,14,84112,0.0-2.0-0.11,NA,"<i>Alex didn't fall when the cane broke.</i> <br> <br> According to this statement, did the cane break?",50,NA,a0e5be70-c78d-4d54-9347-543002d252c9,2024-09-18 14:09:14 CEST
5700,2,html-slider-response,15,89814,0.0-2.0-0.12,NA,"<i>Reese didn't exclaim that the gate opened.</i> <br> <br> According to this statement, did the gate open?",50,NA,a0e5be70-c78d-4d54-9347-543002d252c9,2024-09-18 14:09:14 CEST
10718,"{""P0_Q0"":null,""age"":""30"",""gender"":""female"",""language"":""yes"",""AE"":""yes"",""comments"":""""}",survey,16,100593,0.0-3.0,NA,NA,NA,[],a0e5be70-c78d-4d54-9347-543002d252c9,2024-09-18 14:09:14 CEST
9932,"{""Q0"":""Jennifer""}",survey-text,0,9960,0.0-0.0-0.0,TRUE,NA,NA,NA,2cb7a1be-e22e-4b08-af67-e440179a19f3,2024-09-18 14:11:38 CEST
1390,0,html-button-response,1,11351,0.0-0.0-3.0-0.0,NA,<p style='text-align:left'><b> Correct response! You are a human :) </b><br><br></p>,NA,NA,2cb7a1be-e22e-4b08-af67-e440179a19f3,2024-09-18 14:11:38 CEST
11726,0,html-button-response,2,23079,0.0-1.0,NA,"<h3>Welcome!</h3>  <p style='text-align:left'>Please read the following instructions carefully.</p>  <p style='text-align:left'>In this experiment, you will read 13 statements followed by a question, as in the example below:</p>  <div style='display: flex; justify-content: center;'>    <div style='white-space: nowrap; text-align: left;'>      <p style='text-align:left'> <i>Robin didn't believe that the table wobbled.</i> </p>      <p style='text-align:left'> According to this statement, did the table wobble? </p>    </div>  </div>  <p style='text-align:left'>To answer the question, you will use a slider marked 'no' at one end and 'yes' at the other.</p>  <p style='text-align:left'>The experiment will take about 2.5 minutes and you will be paid £0.39.</p>  <p style='text-align:left' font size=""1"">By clicking the button below, you agree to participate in this experiment conducted by researchers at the University of Stuttgart. You may withdraw from the experiment at any time. The data collected will be anonymous and confidential. If you have any questions, you can contact the requester through Prolific or by writing directly to st166874@stud.uni-stuttgart.de.</p>",NA,NA,2cb7a1be-e22e-4b08-af67-e440179a19f3,2024-09-18 14:11:38 CEST
9541,23,html-slider-response,3,32622,0.0-2.0-0.0,NA,"<i>Dylan didn't sing that the sauce thickened.</i> <br> <br> According to this statement, did the sauce thicken?",50,NA,2cb7a1be-e22e-4b08-af67-e440179a19f3,2024-09-18 14:11:38 CEST
9163,78,html-slider-response,4,41788,0.0-2.0-0.1,NA,"<i>Stevie didn't leak that the balloon popped.</i> <br> <br> According to this statement, did the balloon pop?",50,NA,2cb7a1be-e22e-4b08-af67-e440179a19f3,2024-09-18 14:11:38 CEST
4376,23,html-slider-response,5,46165,0.0-2.0-0.2,NA,"<i>Blake didn't mark that the computer restarted.</i> <br> <br> According to this statement, did the computer restart?",50,NA,2cb7a1be-e22e-4b08-af67-e440179a19f3,2024-09-18 14:11:38 CEST
4011,16,html-slider-response,6,50177,0.0-2.0-0.3,NA,"<i>Morgan didn't log that the gate opened.</i> <br> <br> According to this statement, did the gate open?",50,NA,2cb7a1be-e22e-4b08-af67-e440179a19f3,2024-09-18 14:11:38 CEST
4665,80,html-slider-response,7,54844,0.0-2.0-0.4,NA,"<i>Jordan didn't show that the knot tightened.</i> <br> <br> According to this statement, did the knot tighten?",50,NA,2cb7a1be-e22e-4b08-af67-e440179a19f3,2024-09-18 14:11:38 CEST
3380,73,html-slider-response,8,58225,0.0-2.0-0.5,NA,"<i>Charlie didn't answer that the paper burned.</i> <br> <br> According to this statement, did the paper burn?",50,NA,2cb7a1be-e22e-4b08-af67-e440179a19f3,2024-09-18 14:11:38 CEST
3649,21,html-slider-response,9,61876,0.0-2.0-0.6,NA,"<i>Harper didn't uphold that the egg cracked.</i> <br> <br> According to this statement, did the egg crack?",50,NA,2cb7a1be-e22e-4b08-af67-e440179a19f3,2024-09-18 14:11:38 CEST
4240,75,html-slider-response,10,66118,0.0-2.0-0.7,NA,"<i>Reese didn't insinuate that the room darkened.</i> <br> <br> According to this statement, did the room darken?",50,NA,2cb7a1be-e22e-4b08-af67-e440179a19f3,2024-09-18 14:11:38 CEST
5988,81,html-slider-response,11,72107,0.0-2.0-0.8,NA,"<i>Jamie didn't bicker that the airbag deployed.</i> <br> <br> According to this statement, did the airbag deploy?",50,NA,2cb7a1be-e22e-4b08-af67-e440179a19f3,2024-09-18 14:11:38 CEST
4195,77,html-slider-response,12,76304,0.0-2.0-0.9,NA,"<i>Evan didn't sob that the factory closed.</i> <br> <br> According to this statement, did the factory close?",50,NA,2cb7a1be-e22e-4b08-af67-e440179a19f3,2024-09-18 14:11:38 CEST
5052,16,html-slider-response,13,81357,0.0-2.0-0.10,NA,"<i>Taylor smiled when the vase didn't shatter.</i> <br> <br> According to this statement, did the vase shatter?",50,NA,2cb7a1be-e22e-4b08-af67-e440179a19f3,2024-09-18 14:11:38 CEST
4064,86,html-slider-response,14,85423,0.0-2.0-0.11,NA,"<i>Frankie didn't scream that the bolt loosened.</i> <br> <br> According to this statement, did the bolt loosen?",50,NA,2cb7a1be-e22e-4b08-af67-e440179a19f3,2024-09-18 14:11:38 CEST
4189,100,html-slider-response,15,89614,0.0-2.0-0.12,NA,"<i>Alex didn't fall when the cane broke.</i> <br> <br> According to this statement, did the cane break?",50,NA,2cb7a1be-e22e-4b08-af67-e440179a19f3,2024-09-18 14:11:38 CEST
10850,"{""P0_Q0"":null,""age"":""29"",""gender"":""female"",""language"":""yes"",""AE"":""yes"",""comments"":""""}",survey,16,100526,0.0-3.0,NA,NA,NA,[],2cb7a1be-e22e-4b08-af67-e440179a19f3,2024-09-18 14:11:38 CEST
9655,"{""Q0"":""Jessica""}",survey-text,0,9666,0.0-0.0-0.0,TRUE,NA,NA,NA,cb332d8a-6af0-4bc1-a445-04dad76be6fe,2024-09-18 14:18:51 CEST
2861,0,html-button-response,1,12529,0.0-0.0-3.0-0.0,NA,<p style='text-align:left'><b> Correct response! You are a human :) </b><br><br></p>,NA,NA,cb332d8a-6af0-4bc1-a445-04dad76be6fe,2024-09-18 14:18:51 CEST
18406,0,html-button-response,2,30935,0.0-1.0,NA,"<h3>Welcome!</h3>  <p style='text-align:left'>Please read the following instructions carefully.</p>  <p style='text-align:left'>In this experiment, you will read 13 statements followed by a question, as in the example below:</p>  <div style='display: flex; justify-content: center;'>    <div style='white-space: nowrap; text-align: left;'>      <p style='text-align:left'> <i>Robin didn't believe that the table wobbled.</i> </p>      <p style='text-align:left'> According to this statement, did the table wobble? </p>    </div>  </div>  <p style='text-align:left'>To answer the question, you will use a slider marked 'no' at one end and 'yes' at the other.</p>  <p style='text-align:left'>The experiment will take about 2.5 minutes and you will be paid £0.39.</p>  <p style='text-align:left' font size=""1"">By clicking the button below, you agree to participate in this experiment conducted by researchers at the University of Stuttgart. You may withdraw from the experiment at any time. The data collected will be anonymous and confidential. If you have any questions, you can contact the requester through Prolific or by writing directly to st166874@stud.uni-stuttgart.de.</p>",NA,NA,cb332d8a-6af0-4bc1-a445-04dad76be6fe,2024-09-18 14:18:51 CEST
16383,0,html-slider-response,3,47319,0.0-2.0-0.0,NA,"<i>Morgan didn't utter that the room darkened.</i> <br> <br> According to this statement, did the room darken?",50,NA,cb332d8a-6af0-4bc1-a445-04dad76be6fe,2024-09-18 14:18:51 CEST
13071,19,html-slider-response,4,60392,0.0-2.0-0.1,NA,"<i>Frankie didn't whisper that the paper burned.</i> <br> <br> According to this statement, did the paper burn?",50,NA,cb332d8a-6af0-4bc1-a445-04dad76be6fe,2024-09-18 14:18:51 CEST
9414,2,html-slider-response,5,69807,0.0-2.0-0.2,NA,"<i>Evan didn't admit that the gate opened.</i> <br> <br> According to this statement, did the gate open?",50,NA,cb332d8a-6af0-4bc1-a445-04dad76be6fe,2024-09-18 14:18:51 CEST
7135,0,html-slider-response,6,76943,0.0-2.0-0.3,NA,"<i>Stevie didn't retract that the bolt loosened.</i> <br> <br> According to this statement, did the bolt loosen?",50,NA,cb332d8a-6af0-4bc1-a445-04dad76be6fe,2024-09-18 14:18:51 CEST
9743,100,html-slider-response,7,86687,0.0-2.0-0.4,NA,"<i>Alex didn't fall when the cane broke.</i> <br> <br> According to this statement, did the cane break?",50,NA,cb332d8a-6af0-4bc1-a445-04dad76be6fe,2024-09-18 14:18:51 CEST
6022,100,html-slider-response,8,92709,0.0-2.0-0.5,NA,"<i>Charlie didn't fabricate that the computer restarted.</i> <br> <br> According to this statement, did the computer restart?",50,NA,cb332d8a-6af0-4bc1-a445-04dad76be6fe,2024-09-18 14:18:51 CEST
7064,100,html-slider-response,9,99774,0.0-2.0-0.6,NA,"<i>Harper didn't shout that the factory closed.</i> <br> <br> According to this statement, did the factory close?",50,NA,cb332d8a-6af0-4bc1-a445-04dad76be6fe,2024-09-18 14:18:51 CEST
4007,100,html-slider-response,10,103782,0.0-2.0-0.7,NA,"<i>Jamie didn't flaunt that the sauce thickened.</i> <br> <br> According to this statement, did the sauce thicken?",50,NA,cb332d8a-6af0-4bc1-a445-04dad76be6fe,2024-09-18 14:18:51 CEST
6895,100,html-slider-response,11,110678,0.0-2.0-0.8,NA,"<i>Dylan didn't point out that the balloon popped.</i> <br> <br> According to this statement, did the balloon pop?",50,NA,cb332d8a-6af0-4bc1-a445-04dad76be6fe,2024-09-18 14:18:51 CEST
5791,0,html-slider-response,12,116469,0.0-2.0-0.9,NA,"<i>Taylor smiled when the vase didn't shatter.</i> <br> <br> According to this statement, did the vase shatter?",50,NA,cb332d8a-6af0-4bc1-a445-04dad76be6fe,2024-09-18 14:18:51 CEST
15975,100,html-slider-response,13,132446,0.0-2.0-0.10,NA,"<i>Jordan didn't whimper that the egg cracked.</i> <br> <br> According to this statement, did the egg crack?",50,NA,cb332d8a-6af0-4bc1-a445-04dad76be6fe,2024-09-18 14:18:51 CEST
9544,0,html-slider-response,14,141991,0.0-2.0-0.11,NA,"<i>Blake didn't sigh that the knot tightened.</i> <br> <br> According to this statement, did the knot tighten?",50,NA,cb332d8a-6af0-4bc1-a445-04dad76be6fe,2024-09-18 14:18:51 CEST
8582,2,html-slider-response,15,150572,0.0-2.0-0.12,NA,"<i>Reese didn't exhibit that the airbag deployed.</i> <br> <br> According to this statement, did the airbag deploy?",50,NA,cb332d8a-6af0-4bc1-a445-04dad76be6fe,2024-09-18 14:18:51 CEST
9554,"{""P0_Q0"":null,""age"":""36"",""gender"":""female"",""language"":""yes"",""AE"":""yes"",""comments"":""""}",survey,16,160162,0.0-3.0,NA,NA,NA,[],cb332d8a-6af0-4bc1-a445-04dad76be6fe,2024-09-18 14:18:51 CEST
5416,"{""Q0"":""Margaret""}",survey-text,0,5472,0.0-0.0-0.0,TRUE,NA,NA,NA,11cfc4be-697d-4058-8d07-d56be969435c,2024-09-18 14:19:50 CEST
2751,0,html-button-response,1,8224,0.0-0.0-3.0-0.0,NA,<p style='text-align:left'><b> Correct response! You are a human :) </b><br><br></p>,NA,NA,11cfc4be-697d-4058-8d07-d56be969435c,2024-09-18 14:19:50 CEST
6643,0,html-button-response,2,14869,0.0-1.0,NA,"<h3>Welcome!</h3>  <p style='text-align:left'>Please read the following instructions carefully.</p>  <p style='text-align:left'>In this experiment, you will read 13 statements followed by a question, as in the example below:</p>  <div style='display: flex; justify-content: center;'>    <div style='white-space: nowrap; text-align: left;'>      <p style='text-align:left'> <i>Robin didn't believe that the table wobbled.</i> </p>      <p style='text-align:left'> According to this statement, did the table wobble? </p>    </div>  </div>  <p style='text-align:left'>To answer the question, you will use a slider marked 'no' at one end and 'yes' at the other.</p>  <p style='text-align:left'>The experiment will take about 2.5 minutes and you will be paid £0.39.</p>  <p style='text-align:left' font size=""1"">By clicking the button below, you agree to participate in this experiment conducted by researchers at the University of Stuttgart. You may withdraw from the experiment at any time. The data collected will be anonymous and confidential. If you have any questions, you can contact the requester through Prolific or by writing directly to st166874@stud.uni-stuttgart.de.</p>",NA,NA,11cfc4be-697d-4058-8d07-d56be969435c,2024-09-18 14:19:50 CEST
4764,93,html-slider-response,3,19634,0.0-2.0-0.0,NA,"<i>Jamie didn't yell that the balloon popped.</i> <br> <br> According to this statement, did the balloon pop?",50,NA,11cfc4be-697d-4058-8d07-d56be969435c,2024-09-18 14:19:50 CEST
4472,97,html-slider-response,4,24107,0.0-2.0-0.1,NA,"<i>Morgan didn't argue that the sauce thickened.</i> <br> <br> According to this statement, did the sauce thicken?",50,NA,11cfc4be-697d-4058-8d07-d56be969435c,2024-09-18 14:19:50 CEST
3875,95,html-slider-response,5,27983,0.0-2.0-0.2,NA,"<i>Frankie didn't disclose that the room darkened.</i> <br> <br> According to this statement, did the room darken?",50,NA,11cfc4be-697d-4058-8d07-d56be969435c,2024-09-18 14:19:50 CEST
8863,34,html-slider-response,6,36846,0.0-2.0-0.3,NA,"<i>Jordan didn't guarantee that the airbag deployed.</i> <br> <br> According to this statement, did the airbag deploy?",50,NA,11cfc4be-697d-4058-8d07-d56be969435c,2024-09-18 14:19:50 CEST
4779,0,html-slider-response,7,41627,0.0-2.0-0.4,NA,"<i>Taylor smiled when the vase didn't shatter.</i> <br> <br> According to this statement, did the vase shatter?",50,NA,11cfc4be-697d-4058-8d07-d56be969435c,2024-09-18 14:19:50 CEST
7354,57,html-slider-response,8,48983,0.0-2.0-0.5,NA,"<i>Blake didn't answer that the knot tightened.</i> <br> <br> According to this statement, did the knot tighten?",50,NA,11cfc4be-697d-4058-8d07-d56be969435c,2024-09-18 14:19:50 CEST
5343,89,html-slider-response,9,54327,0.0-2.0-0.6,NA,"<i>Evan didn't publish that the factory closed.</i> <br> <br> According to this statement, did the factory close?",50,NA,11cfc4be-697d-4058-8d07-d56be969435c,2024-09-18 14:19:50 CEST
11008,88,html-slider-response,10,65335,0.0-2.0-0.7,NA,"<i>Harper didn't endorse that the bolt loosened.</i> <br> <br> According to this statement, did the bolt loosen?",50,NA,11cfc4be-697d-4058-8d07-d56be969435c,2024-09-18 14:19:50 CEST
6095,100,html-slider-response,11,71430,0.0-2.0-0.8,NA,"<i>Dylan didn't dismiss that the gate opened.</i> <br> <br> According to this statement, did the gate open?",50,NA,11cfc4be-697d-4058-8d07-d56be969435c,2024-09-18 14:19:50 CEST
4918,73,html-slider-response,12,76351,0.0-2.0-0.9,NA,"<i>Charlie didn't gloat that the computer restarted.</i> <br> <br> According to this statement, did the computer restart?",50,NA,11cfc4be-697d-4058-8d07-d56be969435c,2024-09-18 14:19:50 CEST
3549,100,html-slider-response,13,79901,0.0-2.0-0.10,NA,"<i>Stevie didn't mention that the paper burned.</i> <br> <br> According to this statement, did the paper burn?",50,NA,11cfc4be-697d-4058-8d07-d56be969435c,2024-09-18 14:19:50 CEST
5135,100,html-slider-response,14,85037,0.0-2.0-0.11,NA,"<i>Alex didn't fall when the cane broke.</i> <br> <br> According to this statement, did the cane break?",50,NA,11cfc4be-697d-4058-8d07-d56be969435c,2024-09-18 14:19:50 CEST
3626,100,html-slider-response,15,88665,0.0-2.0-0.12,NA,"<i>Reese didn't dispute that the egg cracked.</i> <br> <br> According to this statement, did the egg crack?",50,NA,11cfc4be-697d-4058-8d07-d56be969435c,2024-09-18 14:19:50 CEST
10885,"{""P0_Q0"":null,""age"":""57"",""gender"":""female"",""language"":""yes"",""AE"":""yes"",""comments"":""""}",survey,16,99591,0.0-3.0,NA,NA,NA,[],11cfc4be-697d-4058-8d07-d56be969435c,2024-09-18 14:19:50 CEST
22128,"{""Q0"":""Patricia""}",survey-text,0,22134,0.0-0.0-0.0,TRUE,NA,NA,NA,7e19178c-6cda-495f-b7d4-848d6e7a3c6d,2024-09-18 14:21:55 CEST
5275,0,html-button-response,1,27413,0.0-0.0-3.0-0.0,NA,<p style='text-align:left'><b> Correct response! You are a human :) </b><br><br></p>,NA,NA,7e19178c-6cda-495f-b7d4-848d6e7a3c6d,2024-09-18 14:21:55 CEST
26228,0,html-button-response,2,53644,0.0-1.0,NA,"<h3>Welcome!</h3>  <p style='text-align:left'>Please read the following instructions carefully.</p>  <p style='text-align:left'>In this experiment, you will read 13 statements followed by a question, as in the example below:</p>  <div style='display: flex; justify-content: center;'>    <div style='white-space: nowrap; text-align: left;'>      <p style='text-align:left'> <i>Robin didn't believe that the table wobbled.</i> </p>      <p style='text-align:left'> According to this statement, did the table wobble? </p>    </div>  </div>  <p style='text-align:left'>To answer the question, you will use a slider marked 'no' at one end and 'yes' at the other.</p>  <p style='text-align:left'>The experiment will take about 2.5 minutes and you will be paid £0.39.</p>  <p style='text-align:left' font size=""1"">By clicking the button below, you agree to participate in this experiment conducted by researchers at the University of Stuttgart. You may withdraw from the experiment at any time. The data collected will be anonymous and confidential. If you have any questions, you can contact the requester through Prolific or by writing directly to st166874@stud.uni-stuttgart.de.</p>",NA,NA,7e19178c-6cda-495f-b7d4-848d6e7a3c6d,2024-09-18 14:21:55 CEST
9311,100,html-slider-response,3,62960,0.0-2.0-0.0,NA,"<i>Morgan didn't indicate that the balloon popped.</i> <br> <br> According to this statement, did the balloon pop?",50,NA,7e19178c-6cda-495f-b7d4-848d6e7a3c6d,2024-09-18 14:21:55 CEST
9961,100,html-slider-response,4,72925,0.0-2.0-0.1,NA,"<i>Stevie didn't groan that the paper burned.</i> <br> <br> According to this statement, did the paper burn?",50,NA,7e19178c-6cda-495f-b7d4-848d6e7a3c6d,2024-09-18 14:21:55 CEST
7372,100,html-slider-response,5,80308,0.0-2.0-0.2,NA,"<i>Charlie didn't reaffirm that the bolt loosened.</i> <br> <br> According to this statement, did the bolt loosen?",50,NA,7e19178c-6cda-495f-b7d4-848d6e7a3c6d,2024-09-18 14:21:55 CEST
6195,100,html-slider-response,6,86507,0.0-2.0-0.3,NA,"<i>Alex didn't fall when the cane broke.</i> <br> <br> According to this statement, did the cane break?",50,NA,7e19178c-6cda-495f-b7d4-848d6e7a3c6d,2024-09-18 14:21:55 CEST
8579,100,html-slider-response,7,95090,0.0-2.0-0.4,NA,"<i>Jordan didn't type that the room darkened.</i> <br> <br> According to this statement, did the room darken?",50,NA,7e19178c-6cda-495f-b7d4-848d6e7a3c6d,2024-09-18 14:21:55 CEST
17346,100,html-slider-response,8,112438,0.0-2.0-0.5,NA,"<i>Blake didn't insist that the computer restarted.</i> <br> <br> According to this statement, did the computer restart?",50,NA,7e19178c-6cda-495f-b7d4-848d6e7a3c6d,2024-09-18 14:21:55 CEST
7679,100,html-slider-response,9,120121,0.0-2.0-0.6,NA,"<i>Harper didn't communicate that the factory closed.</i> <br> <br> According to this statement, did the factory close?",50,NA,7e19178c-6cda-495f-b7d4-848d6e7a3c6d,2024-09-18 14:21:55 CEST
9363,0,html-slider-response,10,129487,0.0-2.0-0.7,NA,"<i>Taylor smiled when the vase didn't shatter.</i> <br> <br> According to this statement, did the vase shatter?",50,NA,7e19178c-6cda-495f-b7d4-848d6e7a3c6d,2024-09-18 14:21:55 CEST
6679,100,html-slider-response,11,136169,0.0-2.0-0.8,NA,"<i>Frankie didn't embellish that the gate opened.</i> <br> <br> According to this statement, did the gate open?",50,NA,7e19178c-6cda-495f-b7d4-848d6e7a3c6d,2024-09-18 14:21:55 CEST
7413,99,html-slider-response,12,143585,0.0-2.0-0.9,NA,"<i>Evan didn't complain that the airbag deployed.</i> <br> <br> According to this statement, did the airbag deploy?",50,NA,7e19178c-6cda-495f-b7d4-848d6e7a3c6d,2024-09-18 14:21:55 CEST
5297,100,html-slider-response,13,148885,0.0-2.0-0.10,NA,"<i>Dylan didn't warn that the sauce thickened.</i> <br> <br> According to this statement, did the sauce thicken?",50,NA,7e19178c-6cda-495f-b7d4-848d6e7a3c6d,2024-09-18 14:21:55 CEST
5645,100,html-slider-response,14,154533,0.0-2.0-0.11,NA,"<i>Jamie didn't confirm that the egg cracked.</i> <br> <br> According to this statement, did the egg crack?",50,NA,7e19178c-6cda-495f-b7d4-848d6e7a3c6d,2024-09-18 14:21:55 CEST
16196,100,html-slider-response,15,170733,0.0-2.0-0.12,NA,"<i>Reese didn't submit that the knot tightened.</i> <br> <br> According to this statement, did the knot tighten?",50,NA,7e19178c-6cda-495f-b7d4-848d6e7a3c6d,2024-09-18 14:21:55 CEST
42627,"{""P0_Q0"":null,""age"":""61"",""gender"":""female"",""language"":""yes"",""AE"":""yes"",""comments"":""""}",survey,16,213439,0.0-3.0,NA,NA,NA,[],7e19178c-6cda-495f-b7d4-848d6e7a3c6d,2024-09-18 14:21:55 CEST
6278,"{""Q0"":""Jennifer""}",survey-text,0,6288,0.0-0.0-0.0,TRUE,NA,NA,NA,ec56fd0c-0e64-4a41-b004-a65608d3ab05,2024-09-18 14:23:21 CEST
1825,0,html-button-response,1,8115,0.0-0.0-3.0-0.0,NA,<p style='text-align:left'><b> Correct response! You are a human :) </b><br><br></p>,NA,NA,ec56fd0c-0e64-4a41-b004-a65608d3ab05,2024-09-18 14:23:21 CEST
4637,0,html-button-response,2,12753,0.0-1.0,NA,"<h3>Welcome!</h3>  <p style='text-align:left'>Please read the following instructions carefully.</p>  <p style='text-align:left'>In this experiment, you will read 13 statements followed by a question, as in the example below:</p>  <div style='display: flex; justify-content: center;'>    <div style='white-space: nowrap; text-align: left;'>      <p style='text-align:left'> <i>Robin didn't believe that the table wobbled.</i> </p>      <p style='text-align:left'> According to this statement, did the table wobble? </p>    </div>  </div>  <p style='text-align:left'>To answer the question, you will use a slider marked 'no' at one end and 'yes' at the other.</p>  <p style='text-align:left'>The experiment will take about 2.5 minutes and you will be paid £0.39.</p>  <p style='text-align:left' font size=""1"">By clicking the button below, you agree to participate in this experiment conducted by researchers at the University of Stuttgart. You may withdraw from the experiment at any time. The data collected will be anonymous and confidential. If you have any questions, you can contact the requester through Prolific or by writing directly to st166874@stud.uni-stuttgart.de.</p>",NA,NA,ec56fd0c-0e64-4a41-b004-a65608d3ab05,2024-09-18 14:23:21 CEST
7143,100,html-slider-response,3,19899,0.0-2.0-0.0,NA,"<i>Alex didn't fall when the cane broke.</i> <br> <br> According to this statement, did the cane break?",50,NA,ec56fd0c-0e64-4a41-b004-a65608d3ab05,2024-09-18 14:23:21 CEST
6831,100,html-slider-response,4,26732,0.0-2.0-0.1,NA,"<i>Harper didn't warn that the egg cracked.</i> <br> <br> According to this statement, did the egg crack?",50,NA,ec56fd0c-0e64-4a41-b004-a65608d3ab05,2024-09-18 14:23:21 CEST
7064,100,html-slider-response,5,33798,0.0-2.0-0.2,NA,"<i>Stevie didn't posit that the airbag deployed.</i> <br> <br> According to this statement, did the airbag deploy?",50,NA,ec56fd0c-0e64-4a41-b004-a65608d3ab05,2024-09-18 14:23:21 CEST
11131,100,html-slider-response,6,44932,0.0-2.0-0.3,NA,"<i>Reese didn't state that the gate opened.</i> <br> <br> According to this statement, did the gate open?",50,NA,ec56fd0c-0e64-4a41-b004-a65608d3ab05,2024-09-18 14:23:21 CEST
4948,100,html-slider-response,7,49882,0.0-2.0-0.4,NA,"<i>Jordan didn't circulate that the computer restarted.</i> <br> <br> According to this statement, did the computer restart?",50,NA,ec56fd0c-0e64-4a41-b004-a65608d3ab05,2024-09-18 14:23:21 CEST
5298,100,html-slider-response,8,55182,0.0-2.0-0.5,NA,"<i>Jamie didn't divulge that the balloon popped.</i> <br> <br> According to this statement, did the balloon pop?",50,NA,ec56fd0c-0e64-4a41-b004-a65608d3ab05,2024-09-18 14:23:21 CEST
7198,0,html-slider-response,9,62382,0.0-2.0-0.6,NA,"<i>Dylan didn't think that the factory closed.</i> <br> <br> According to this statement, did the factory close?",50,NA,ec56fd0c-0e64-4a41-b004-a65608d3ab05,2024-09-18 14:23:21 CEST
5231,100,html-slider-response,10,67615,0.0-2.0-0.7,NA,"<i>Charlie didn't scoff that the sauce thickened.</i> <br> <br> According to this statement, did the sauce thicken?",50,NA,ec56fd0c-0e64-4a41-b004-a65608d3ab05,2024-09-18 14:23:21 CEST
6881,100,html-slider-response,11,74498,0.0-2.0-0.8,NA,"<i>Frankie didn't contend that the bolt loosened.</i> <br> <br> According to this statement, did the bolt loosen?",50,NA,ec56fd0c-0e64-4a41-b004-a65608d3ab05,2024-09-18 14:23:21 CEST
6782,100,html-slider-response,12,81281,0.0-2.0-0.9,NA,"<i>Blake didn't corroborate that the knot tightened.</i> <br> <br> According to this statement, did the knot tighten?",50,NA,ec56fd0c-0e64-4a41-b004-a65608d3ab05,2024-09-18 14:23:21 CEST
19049,0,html-slider-response,13,100332,0.0-2.0-0.10,NA,"<i>Taylor smiled when the vase didn't shatter.</i> <br> <br> According to this statement, did the vase shatter?",50,NA,ec56fd0c-0e64-4a41-b004-a65608d3ab05,2024-09-18 14:23:21 CEST
9198,100,html-slider-response,14,109531,0.0-2.0-0.11,NA,"<i>Morgan didn't utter that the paper burned.</i> <br> <br> According to this statement, did the paper burn?",50,NA,ec56fd0c-0e64-4a41-b004-a65608d3ab05,2024-09-18 14:23:21 CEST
17215,100,html-slider-response,15,126748,0.0-2.0-0.12,NA,"<i>Evan didn't remark that the room darkened.</i> <br> <br> According to this statement, did the room darken?",50,NA,ec56fd0c-0e64-4a41-b004-a65608d3ab05,2024-09-18 14:23:21 CEST
11348,"{""P0_Q0"":null,""age"":""42"",""gender"":""female"",""language"":""yes"",""AE"":""yes"",""comments"":""""}",survey,16,138153,0.0-3.0,NA,NA,NA,[],ec56fd0c-0e64-4a41-b004-a65608d3ab05,2024-09-18 14:23:21 CEST
18309,"{""Q0"":""Mary""}",survey-text,0,18327,0.0-0.0-0.0,TRUE,NA,NA,NA,1984e371-3866-4945-8282-83882ea9260a,2024-09-18 14:23:55 CEST
1456,0,html-button-response,1,19786,0.0-0.0-3.0-0.0,NA,<p style='text-align:left'><b> Correct response! You are a human :) </b><br><br></p>,NA,NA,1984e371-3866-4945-8282-83882ea9260a,2024-09-18 14:23:55 CEST
2510,0,html-button-response,2,22298,0.0-1.0,NA,"<h3>Welcome!</h3>  <p style='text-align:left'>Please read the following instructions carefully.</p>  <p style='text-align:left'>In this experiment, you will read 13 statements followed by a question, as in the example below:</p>  <div style='display: flex; justify-content: center;'>    <div style='white-space: nowrap; text-align: left;'>      <p style='text-align:left'> <i>Robin didn't believe that the table wobbled.</i> </p>      <p style='text-align:left'> According to this statement, did the table wobble? </p>    </div>  </div>  <p style='text-align:left'>To answer the question, you will use a slider marked 'no' at one end and 'yes' at the other.</p>  <p style='text-align:left'>The experiment will take about 2.5 minutes and you will be paid £0.39.</p>  <p style='text-align:left' font size=""1"">By clicking the button below, you agree to participate in this experiment conducted by researchers at the University of Stuttgart. You may withdraw from the experiment at any time. The data collected will be anonymous and confidential. If you have any questions, you can contact the requester through Prolific or by writing directly to st166874@stud.uni-stuttgart.de.</p>",NA,NA,1984e371-3866-4945-8282-83882ea9260a,2024-09-18 14:23:55 CEST
7447,100,html-slider-response,3,29746,0.0-2.0-0.0,NA,"<i>Frankie didn't log that the egg cracked.</i> <br> <br> According to this statement, did the egg crack?",50,NA,1984e371-3866-4945-8282-83882ea9260a,2024-09-18 14:23:55 CEST
7386,100,html-slider-response,4,37134,0.0-2.0-0.1,NA,"<i>Alex didn't fall when the cane broke.</i> <br> <br> According to this statement, did the cane break?",50,NA,1984e371-3866-4945-8282-83882ea9260a,2024-09-18 14:23:55 CEST
6983,100,html-slider-response,5,44118,0.0-2.0-0.2,NA,"<i>Dylan didn't gush that the knot tightened.</i> <br> <br> According to this statement, did the knot tighten?",50,NA,1984e371-3866-4945-8282-83882ea9260a,2024-09-18 14:23:55 CEST
8233,100,html-slider-response,6,52351,0.0-2.0-0.3,NA,"<i>Reese didn't reiterate that the airbag deployed.</i> <br> <br> According to this statement, did the airbag deploy?",50,NA,1984e371-3866-4945-8282-83882ea9260a,2024-09-18 14:23:55 CEST
6113,100,html-slider-response,7,58465,0.0-2.0-0.4,NA,"<i>Harper didn't quip that the sauce thickened.</i> <br> <br> According to this statement, did the sauce thicken?",50,NA,1984e371-3866-4945-8282-83882ea9260a,2024-09-18 14:23:55 CEST
5363,100,html-slider-response,8,63829,0.0-2.0-0.5,NA,"<i>Jamie didn't maintain that the room darkened.</i> <br> <br> According to this statement, did the room darken?",50,NA,1984e371-3866-4945-8282-83882ea9260a,2024-09-18 14:23:55 CEST
5394,100,html-slider-response,9,69225,0.0-2.0-0.6,NA,"<i>Stevie didn't fax that the gate opened.</i> <br> <br> According to this statement, did the gate open?",50,NA,1984e371-3866-4945-8282-83882ea9260a,2024-09-18 14:23:55 CEST
6175,0,html-slider-response,10,75401,0.0-2.0-0.7,NA,"<i>Taylor smiled when the vase didn't shatter.</i> <br> <br> According to this statement, did the vase shatter?",50,NA,1984e371-3866-4945-8282-83882ea9260a,2024-09-18 14:23:55 CEST
5631,100,html-slider-response,11,81033,0.0-2.0-0.8,NA,"<i>Jordan didn't stress that the bolt loosened.</i> <br> <br> According to this statement, did the bolt loosen?",50,NA,1984e371-3866-4945-8282-83882ea9260a,2024-09-18 14:23:55 CEST
5930,100,html-slider-response,12,86965,0.0-2.0-0.9,NA,"<i>Morgan didn't utter that the balloon popped.</i> <br> <br> According to this statement, did the balloon pop?",50,NA,1984e371-3866-4945-8282-83882ea9260a,2024-09-18 14:23:55 CEST
5387,100,html-slider-response,13,92353,0.0-2.0-0.10,NA,"<i>Evan didn't spout that the computer restarted.</i> <br> <br> According to this statement, did the computer restart?",50,NA,1984e371-3866-4945-8282-83882ea9260a,2024-09-18 14:23:55 CEST
5733,100,html-slider-response,14,98087,0.0-2.0-0.11,NA,"<i>Charlie didn't gloat that the factory closed.</i> <br> <br> According to this statement, did the factory close?",50,NA,1984e371-3866-4945-8282-83882ea9260a,2024-09-18 14:23:55 CEST
4553,100,html-slider-response,15,102641,0.0-2.0-0.12,NA,"<i>Blake didn't respond that the paper burned.</i> <br> <br> According to this statement, did the paper burn?",50,NA,1984e371-3866-4945-8282-83882ea9260a,2024-09-18 14:23:55 CEST
15217,"{""P0_Q0"":null,""age"":""49"",""gender"":""female"",""language"":""yes"",""AE"":""yes"",""comments"":""""}",survey,16,117931,0.0-3.0,NA,NA,NA,[],1984e371-3866-4945-8282-83882ea9260a,2024-09-18 14:23:55 CEST
13472,"{""Q0"":""Linda""}",survey-text,0,13496,0.0-0.0-0.0,TRUE,NA,NA,NA,5ee568e6-c5b4-4557-b492-86b60e9e6ced,2024-09-18 14:24:08 CEST
1097,0,html-button-response,1,14598,0.0-0.0-3.0-0.0,NA,<p style='text-align:left'><b> Correct response! You are a human :) </b><br><br></p>,NA,NA,5ee568e6-c5b4-4557-b492-86b60e9e6ced,2024-09-18 14:24:08 CEST
6805,0,html-button-response,2,21404,0.0-1.0,NA,"<h3>Welcome!</h3>  <p style='text-align:left'>Please read the following instructions carefully.</p>  <p style='text-align:left'>In this experiment, you will read 13 statements followed by a question, as in the example below:</p>  <div style='display: flex; justify-content: center;'>    <div style='white-space: nowrap; text-align: left;'>      <p style='text-align:left'> <i>Robin didn't believe that the table wobbled.</i> </p>      <p style='text-align:left'> According to this statement, did the table wobble? </p>    </div>  </div>  <p style='text-align:left'>To answer the question, you will use a slider marked 'no' at one end and 'yes' at the other.</p>  <p style='text-align:left'>The experiment will take about 2.5 minutes and you will be paid £0.39.</p>  <p style='text-align:left' font size=""1"">By clicking the button below, you agree to participate in this experiment conducted by researchers at the University of Stuttgart. You may withdraw from the experiment at any time. The data collected will be anonymous and confidential. If you have any questions, you can contact the requester through Prolific or by writing directly to st166874@stud.uni-stuttgart.de.</p>",NA,NA,5ee568e6-c5b4-4557-b492-86b60e9e6ced,2024-09-18 14:24:08 CEST
10462,100,html-slider-response,3,31872,0.0-2.0-0.0,NA,"<i>Reese didn't challenge that the sauce thickened.</i> <br> <br> According to this statement, did the sauce thicken?",50,NA,5ee568e6-c5b4-4557-b492-86b60e9e6ced,2024-09-18 14:24:08 CEST
6650,100,html-slider-response,4,38526,0.0-2.0-0.1,NA,"<i>Dylan didn't bellow that the computer restarted.</i> <br> <br> According to this statement, did the computer restart?",50,NA,5ee568e6-c5b4-4557-b492-86b60e9e6ced,2024-09-18 14:24:08 CEST
8492,0,html-slider-response,5,47022,0.0-2.0-0.2,NA,"<i>Harper didn't retort that the room darkened.</i> <br> <br> According to this statement, did the room darken?",50,NA,5ee568e6-c5b4-4557-b492-86b60e9e6ced,2024-09-18 14:24:08 CEST
7588,0,html-slider-response,6,54615,0.0-2.0-0.3,NA,"<i>Evan didn't summarize that the balloon popped.</i> <br> <br> According to this statement, did the balloon pop?",50,NA,5ee568e6-c5b4-4557-b492-86b60e9e6ced,2024-09-18 14:24:08 CEST
6100,0,html-slider-response,7,60719,0.0-2.0-0.4,NA,"<i>Taylor smiled when the vase didn't shatter.</i> <br> <br> According to this statement, did the vase shatter?",50,NA,5ee568e6-c5b4-4557-b492-86b60e9e6ced,2024-09-18 14:24:08 CEST
4516,0,html-slider-response,8,65238,0.0-2.0-0.5,NA,"<i>Frankie didn't attest that the airbag deployed.</i> <br> <br> According to this statement, did the airbag deploy?",50,NA,5ee568e6-c5b4-4557-b492-86b60e9e6ced,2024-09-18 14:24:08 CEST
5485,0,html-slider-response,9,70727,0.0-2.0-0.6,NA,"<i>Morgan didn't cheer that the factory closed.</i> <br> <br> According to this statement, did the factory close?",50,NA,5ee568e6-c5b4-4557-b492-86b60e9e6ced,2024-09-18 14:24:08 CEST
4555,0,html-slider-response,10,75284,0.0-2.0-0.7,NA,"<i>Jamie didn't log that the gate opened.</i> <br> <br> According to this statement, did the gate open?",50,NA,5ee568e6-c5b4-4557-b492-86b60e9e6ced,2024-09-18 14:24:08 CEST
4527,0,html-slider-response,11,79813,0.0-2.0-0.8,NA,"<i>Charlie didn't contest that the egg cracked.</i> <br> <br> According to this statement, did the egg crack?",50,NA,5ee568e6-c5b4-4557-b492-86b60e9e6ced,2024-09-18 14:24:08 CEST
4010,0,html-slider-response,12,83827,0.0-2.0-0.9,NA,"<i>Jordan didn't affirm that the paper burned.</i> <br> <br> According to this statement, did the paper burn?",50,NA,5ee568e6-c5b4-4557-b492-86b60e9e6ced,2024-09-18 14:24:08 CEST
5073,0,html-slider-response,13,88903,0.0-2.0-0.10,NA,"<i>Stevie didn't debate that the knot tightened.</i> <br> <br> According to this statement, did the knot tighten?",50,NA,5ee568e6-c5b4-4557-b492-86b60e9e6ced,2024-09-18 14:24:08 CEST
6453,0,html-slider-response,14,95358,0.0-2.0-0.11,NA,"<i>Blake didn't stammer that the bolt loosened.</i> <br> <br> According to this statement, did the bolt loosen?",50,NA,5ee568e6-c5b4-4557-b492-86b60e9e6ced,2024-09-18 14:24:08 CEST
5450,100,html-slider-response,15,100809,0.0-2.0-0.12,NA,"<i>Alex didn't fall when the cane broke.</i> <br> <br> According to this statement, did the cane break?",50,NA,5ee568e6-c5b4-4557-b492-86b60e9e6ced,2024-09-18 14:24:08 CEST
9864,"{""P0_Q0"":null,""age"":""32"",""gender"":""male"",""language"":""yes"",""AE"":""yes"",""comments"":""""}",survey,16,110754,0.0-3.0,NA,NA,NA,[],5ee568e6-c5b4-4557-b492-86b60e9e6ced,2024-09-18 14:24:08 CEST
41692,"{""Q0"":""Sarah""}",survey-text,0,41711,0.0-0.0-0.0,TRUE,NA,NA,NA,fcda0aa2-e74f-4c62-ab51-a751b166569a,2024-09-18 14:25:56 CEST
1125,0,html-button-response,1,42839,0.0-0.0-3.0-0.0,NA,<p style='text-align:left'><b> Correct response! You are a human :) </b><br><br></p>,NA,NA,fcda0aa2-e74f-4c62-ab51-a751b166569a,2024-09-18 14:25:56 CEST
3828,0,html-button-response,2,46669,0.0-1.0,NA,"<h3>Welcome!</h3>  <p style='text-align:left'>Please read the following instructions carefully.</p>  <p style='text-align:left'>In this experiment, you will read 13 statements followed by a question, as in the example below:</p>  <div style='display: flex; justify-content: center;'>    <div style='white-space: nowrap; text-align: left;'>      <p style='text-align:left'> <i>Robin didn't believe that the table wobbled.</i> </p>      <p style='text-align:left'> According to this statement, did the table wobble? </p>    </div>  </div>  <p style='text-align:left'>To answer the question, you will use a slider marked 'no' at one end and 'yes' at the other.</p>  <p style='text-align:left'>The experiment will take about 2.5 minutes and you will be paid £0.39.</p>  <p style='text-align:left' font size=""1"">By clicking the button below, you agree to participate in this experiment conducted by researchers at the University of Stuttgart. You may withdraw from the experiment at any time. The data collected will be anonymous and confidential. If you have any questions, you can contact the requester through Prolific or by writing directly to st166874@stud.uni-stuttgart.de.</p>",NA,NA,fcda0aa2-e74f-4c62-ab51-a751b166569a,2024-09-18 14:25:56 CEST
6698,90,html-slider-response,3,53369,0.0-2.0-0.0,NA,"<i>Charlie didn't warn that the bolt loosened.</i> <br> <br> According to this statement, did the bolt loosen?",50,NA,fcda0aa2-e74f-4c62-ab51-a751b166569a,2024-09-18 14:25:56 CEST
5600,33,html-slider-response,4,58971,0.0-2.0-0.1,NA,"<i>Frankie didn't vow that the egg cracked.</i> <br> <br> According to this statement, did the egg crack?",50,NA,fcda0aa2-e74f-4c62-ab51-a751b166569a,2024-09-18 14:25:56 CEST
5676,43,html-slider-response,5,64649,0.0-2.0-0.2,NA,"<i>Morgan didn't whisper that the computer restarted.</i> <br> <br> According to this statement, did the computer restart?",50,NA,fcda0aa2-e74f-4c62-ab51-a751b166569a,2024-09-18 14:25:56 CEST
3242,72,html-slider-response,6,67893,0.0-2.0-0.3,NA,"<i>Jamie didn't expose that the airbag deployed.</i> <br> <br> According to this statement, did the airbag deploy?",50,NA,fcda0aa2-e74f-4c62-ab51-a751b166569a,2024-09-18 14:25:56 CEST
3367,78,html-slider-response,7,71263,0.0-2.0-0.4,NA,"<i>Reese didn't circulate that the balloon popped.</i> <br> <br> According to this statement, did the balloon pop?",50,NA,fcda0aa2-e74f-4c62-ab51-a751b166569a,2024-09-18 14:25:56 CEST
7665,0,html-slider-response,8,78929,0.0-2.0-0.5,NA,"<i>Alex didn't fall when the cane broke.</i> <br> <br> According to this statement, did the cane break?",50,NA,fcda0aa2-e74f-4c62-ab51-a751b166569a,2024-09-18 14:25:56 CEST
13463,61,html-slider-response,9,92395,0.0-2.0-0.6,NA,"<i>Jordan didn't depict that the factory closed.</i> <br> <br> According to this statement, did the factory close?",50,NA,fcda0aa2-e74f-4c62-ab51-a751b166569a,2024-09-18 14:25:56 CEST
115276,32,html-slider-response,10,207673,0.0-2.0-0.7,NA,"<i>Dylan didn't promise that the paper burned.</i> <br> <br> According to this statement, did the paper burn?",50,NA,fcda0aa2-e74f-4c62-ab51-a751b166569a,2024-09-18 14:25:56 CEST
3683,77,html-slider-response,11,211357,0.0-2.0-0.8,NA,"<i>Stevie didn't groan that the knot tightened.</i> <br> <br> According to this statement, did the knot tighten?",50,NA,fcda0aa2-e74f-4c62-ab51-a751b166569a,2024-09-18 14:25:56 CEST
20169,44,html-slider-response,12,231528,0.0-2.0-0.9,NA,"<i>Evan didn't jest that the sauce thickened.</i> <br> <br> According to this statement, did the sauce thicken?",50,NA,fcda0aa2-e74f-4c62-ab51-a751b166569a,2024-09-18 14:25:56 CEST
4825,69,html-slider-response,13,236355,0.0-2.0-0.10,NA,"<i>Harper didn't cry that the room darkened.</i> <br> <br> According to this statement, did the room darken?",50,NA,fcda0aa2-e74f-4c62-ab51-a751b166569a,2024-09-18 14:25:56 CEST
5685,74,html-slider-response,14,242041,0.0-2.0-0.11,NA,"<i>Blake didn't debate that the gate opened.</i> <br> <br> According to this statement, did the gate open?",50,NA,fcda0aa2-e74f-4c62-ab51-a751b166569a,2024-09-18 14:25:56 CEST
15190,0,html-slider-response,15,257233,0.0-2.0-0.12,NA,"<i>Taylor smiled when the vase didn't shatter.</i> <br> <br> According to this statement, did the vase shatter?",50,NA,fcda0aa2-e74f-4c62-ab51-a751b166569a,2024-09-18 14:25:56 CEST
26166,"{""P0_Q0"":null,""age"":""39"",""gender"":""female"",""language"":""yes"",""AE"":""yes"",""comments"":""""}",survey,16,283466,0.0-3.0,NA,NA,NA,[],fcda0aa2-e74f-4c62-ab51-a751b166569a,2024-09-18 14:25:56 CEST
11533,"{""Q0"":""Linda""}",survey-text,0,11606,0.0-0.0-0.0,TRUE,NA,NA,NA,99ba50e7-2468-4d73-a903-cd9cbc70fe06,2024-09-18 14:26:07 CEST
1670,0,html-button-response,1,13277,0.0-0.0-3.0-0.0,NA,<p style='text-align:left'><b> Correct response! You are a human :) </b><br><br></p>,NA,NA,99ba50e7-2468-4d73-a903-cd9cbc70fe06,2024-09-18 14:26:07 CEST
18678,0,html-button-response,2,31956,0.0-1.0,NA,"<h3>Welcome!</h3>  <p style='text-align:left'>Please read the following instructions carefully.</p>  <p style='text-align:left'>In this experiment, you will read 13 statements followed by a question, as in the example below:</p>  <div style='display: flex; justify-content: center;'>    <div style='white-space: nowrap; text-align: left;'>      <p style='text-align:left'> <i>Robin didn't believe that the table wobbled.</i> </p>      <p style='text-align:left'> According to this statement, did the table wobble? </p>    </div>  </div>  <p style='text-align:left'>To answer the question, you will use a slider marked 'no' at one end and 'yes' at the other.</p>  <p style='text-align:left'>The experiment will take about 2.5 minutes and you will be paid £0.39.</p>  <p style='text-align:left' font size=""1"">By clicking the button below, you agree to participate in this experiment conducted by researchers at the University of Stuttgart. You may withdraw from the experiment at any time. The data collected will be anonymous and confidential. If you have any questions, you can contact the requester through Prolific or by writing directly to st166874@stud.uni-stuttgart.de.</p>",NA,NA,99ba50e7-2468-4d73-a903-cd9cbc70fe06,2024-09-18 14:26:07 CEST
7715,100,html-slider-response,3,39672,0.0-2.0-0.0,NA,"<i>Alex didn't fall when the cane broke.</i> <br> <br> According to this statement, did the cane break?",50,NA,99ba50e7-2468-4d73-a903-cd9cbc70fe06,2024-09-18 14:26:07 CEST
16671,22,html-slider-response,4,56345,0.0-2.0-0.1,NA,"<i>Dylan didn't phone that the gate opened.</i> <br> <br> According to this statement, did the gate open?",50,NA,99ba50e7-2468-4d73-a903-cd9cbc70fe06,2024-09-18 14:26:07 CEST
9771,100,html-slider-response,5,66117,0.0-2.0-0.2,NA,"<i>Charlie didn't stress that the bolt loosened.</i> <br> <br> According to this statement, did the bolt loosen?",50,NA,99ba50e7-2468-4d73-a903-cd9cbc70fe06,2024-09-18 14:26:07 CEST
9250,71,html-slider-response,6,75369,0.0-2.0-0.3,NA,"<i>Evan didn't scream that the room darkened.</i> <br> <br> According to this statement, did the room darken?",50,NA,99ba50e7-2468-4d73-a903-cd9cbc70fe06,2024-09-18 14:26:07 CEST
9075,0,html-slider-response,7,84445,0.0-2.0-0.4,NA,"<i>Taylor smiled when the vase didn't shatter.</i> <br> <br> According to this statement, did the vase shatter?",50,NA,99ba50e7-2468-4d73-a903-cd9cbc70fe06,2024-09-18 14:26:07 CEST
9243,35,html-slider-response,8,93689,0.0-2.0-0.5,NA,"<i>Stevie didn't mumble that the sauce thickened.</i> <br> <br> According to this statement, did the sauce thicken?",50,NA,99ba50e7-2468-4d73-a903-cd9cbc70fe06,2024-09-18 14:26:07 CEST
6972,40,html-slider-response,9,100662,0.0-2.0-0.6,NA,"<i>Morgan didn't squeal that the egg cracked.</i> <br> <br> According to this statement, did the egg crack?",50,NA,99ba50e7-2468-4d73-a903-cd9cbc70fe06,2024-09-18 14:26:07 CEST
8467,36,html-slider-response,10,109129,0.0-2.0-0.7,NA,"<i>Reese didn't state that the computer restarted.</i> <br> <br> According to this statement, did the computer restart?",50,NA,99ba50e7-2468-4d73-a903-cd9cbc70fe06,2024-09-18 14:26:07 CEST
7012,39,html-slider-response,11,116142,0.0-2.0-0.8,NA,"<i>Jordan didn't grunt that the balloon popped.</i> <br> <br> According to this statement, did the balloon pop?",50,NA,99ba50e7-2468-4d73-a903-cd9cbc70fe06,2024-09-18 14:26:07 CEST
6244,37,html-slider-response,12,122388,0.0-2.0-0.9,NA,"<i>Frankie didn't bitch that the knot tightened.</i> <br> <br> According to this statement, did the knot tighten?",50,NA,99ba50e7-2468-4d73-a903-cd9cbc70fe06,2024-09-18 14:26:07 CEST
5485,66,html-slider-response,13,127873,0.0-2.0-0.10,NA,"<i>Harper didn't announce that the airbag deployed.</i> <br> <br> According to this statement, did the airbag deploy?",50,NA,99ba50e7-2468-4d73-a903-cd9cbc70fe06,2024-09-18 14:26:07 CEST
6517,62,html-slider-response,14,134391,0.0-2.0-0.11,NA,"<i>Jamie didn't question that the paper burned.</i> <br> <br> According to this statement, did the paper burn?",50,NA,99ba50e7-2468-4d73-a903-cd9cbc70fe06,2024-09-18 14:26:07 CEST
8154,66,html-slider-response,15,142546,0.0-2.0-0.12,NA,"<i>Blake didn't sketch that the factory closed.</i> <br> <br> According to this statement, did the factory close?",50,NA,99ba50e7-2468-4d73-a903-cd9cbc70fe06,2024-09-18 14:26:07 CEST
21285,"{""P0_Q0"":null,""age"":""43"",""gender"":""female"",""language"":""yes"",""AE"":""yes"",""comments"":""""}",survey,16,163895,0.0-3.0,NA,NA,NA,[],99ba50e7-2468-4d73-a903-cd9cbc70fe06,2024-09-18 14:26:07 CEST
11890,"{""Q0"":""Barbara""}",survey-text,0,11980,0.0-0.0-0.0,TRUE,NA,NA,NA,637212af-7c5c-4e94-85bd-88895a99e29f,2024-09-18 14:27:02 CEST
2734,0,html-button-response,1,14716,0.0-0.0-3.0-0.0,NA,<p style='text-align:left'><b> Correct response! You are a human :) </b><br><br></p>,NA,NA,637212af-7c5c-4e94-85bd-88895a99e29f,2024-09-18 14:27:02 CEST
