"predicate","rating","name","CC","participant_id","age","gender","rt","trial_index"
"explain",1,"Blake","the gate opened","81d9a83f-c0cc-4508-95ea-9e176f006e52","21","male",8742,3
"warn",1,"Stevie","the bolt loosened","81d9a83f-c0cc-4508-95ea-9e176f006e52","21","male",6705,5
"stipulate",1,"Jamie","the sauce thickened","81d9a83f-c0cc-4508-95ea-9e176f006e52","21","male",6360,6
"assert",1,"Harper","the computer restarted","81d9a83f-c0cc-4508-95ea-9e176f006e52","21","male",4937,7
"know",1,"Morgan","the factory closed","81d9a83f-c0cc-4508-95ea-9e176f006e52","21","male",5426,9
"establish",1,"Jordan","the egg cracked","81d9a83f-c0cc-4508-95ea-9e176f006e52","21","male",7965,10
"embellish",1,"Evan","the paper burned","81d9a83f-c0cc-4508-95ea-9e176f006e52","21","male",3351,11
"proclaim",1,"Frankie","the room darkened","81d9a83f-c0cc-4508-95ea-9e176f006e52","21","male",4251,12
"underline",1,"Charlie","the knot tightened","81d9a83f-c0cc-4508-95ea-9e176f006e52","21","male",4948,13
"bicker",0,"Reese","the airbag deployed","81d9a83f-c0cc-4508-95ea-9e176f006e52","21","male",13522,14
"quarrel",1,"Dylan","the balloon popped","81d9a83f-c0cc-4508-95ea-9e176f006e52","21","male",5403,15
"uncover",1,"Reese","the factory closed","237cb5f0-49d0-421f-8b03-601dbaa9e6c2","52","female",8621,5
"specify",1,"Dylan","the sauce thickened","237cb5f0-49d0-421f-8b03-601dbaa9e6c2","52","female",7997,6
"debate",1,"Evan","the airbag deployed","237cb5f0-49d0-421f-8b03-601dbaa9e6c2","52","female",6207,7
"admit",1,"Stevie","the room darkened","237cb5f0-49d0-421f-8b03-601dbaa9e6c2","52","female",8593,9
"showcase",1,"Frankie","the egg cracked","237cb5f0-49d0-421f-8b03-601dbaa9e6c2","52","female",5495,10
"share",1,"Blake","the knot tightened","237cb5f0-49d0-421f-8b03-601dbaa9e6c2","52","female",6079,11
"record",1,"Morgan","the computer restarted","237cb5f0-49d0-421f-8b03-601dbaa9e6c2","52","female",4667,12
"underline",1,"Harper","the balloon popped","237cb5f0-49d0-421f-8b03-601dbaa9e6c2","52","female",4435,13
"tweet",1,"Charlie","the paper burned","237cb5f0-49d0-421f-8b03-601dbaa9e6c2","52","female",4153,14
"add",1,"Jamie","the bolt loosened","237cb5f0-49d0-421f-8b03-601dbaa9e6c2","52","female",5863,15
"whimper",1,"Jordan","the gate opened","237cb5f0-49d0-421f-8b03-601dbaa9e6c2","52","female",11969,16
"fuss",1,"Jamie","the room darkened","0269003c-0abc-402b-8a34-3dbbf2641f74","67","male",7820,3
"blog",-0.08,"Evan","the egg cracked","0269003c-0abc-402b-8a34-3dbbf2641f74","67","male",18834,4
"reaffirm",-0.12,"Reese","the factory closed","0269003c-0abc-402b-8a34-3dbbf2641f74","67","male",15377,6
"warn",-0.0600000000000001,"Morgan","the sauce thickened","0269003c-0abc-402b-8a34-3dbbf2641f74","67","male",10918,7
"divulge",0.54,"Jordan","the balloon popped","0269003c-0abc-402b-8a34-3dbbf2641f74","67","male",9106,8
"insist",-0.04,"Frankie","the gate opened","0269003c-0abc-402b-8a34-3dbbf2641f74","67","male",10127,9
"signify",-0.04,"Harper","the airbag deployed","0269003c-0abc-402b-8a34-3dbbf2641f74","67","male",20915,11
"document",-0.0600000000000001,"Dylan","the computer restarted","0269003c-0abc-402b-8a34-3dbbf2641f74","67","male",7814,12
"contend",-0.08,"Stevie","the knot tightened","0269003c-0abc-402b-8a34-3dbbf2641f74","67","male",7251,13
"log",-0.0600000000000001,"Blake","the bolt loosened","0269003c-0abc-402b-8a34-3dbbf2641f74","67","male",6430,14
"submit",-0.0600000000000001,"Charlie","the paper burned","0269003c-0abc-402b-8a34-3dbbf2641f74","67","male",4953,15
"clarify",-1,"Dylan","the computer restarted","7426c3b1-64ff-4e61-b281-de3f65d61a93","33","female",8191,3
"disclose",1,"Blake","the knot tightened","7426c3b1-64ff-4e61-b281-de3f65d61a93","33","female",4695,4
"contend",-0.96,"Jamie","the egg cracked","7426c3b1-64ff-4e61-b281-de3f65d61a93","33","female",5663,5
"shout",-1,"Jordan","the gate opened","7426c3b1-64ff-4e61-b281-de3f65d61a93","33","female",3671,6
"certify",-1,"Stevie","the factory closed","7426c3b1-64ff-4e61-b281-de3f65d61a93","33","female",2848,7
"contest",1,"Harper","the paper burned","7426c3b1-64ff-4e61-b281-de3f65d61a93","33","female",4855,8
"apologize",1,"Morgan","the room darkened","7426c3b1-64ff-4e61-b281-de3f65d61a93","33","female",5008,9
"uncover",1,"Frankie","the bolt loosened","7426c3b1-64ff-4e61-b281-de3f65d61a93","33","female",4543,11
"rant",1,"Charlie","the airbag deployed","7426c3b1-64ff-4e61-b281-de3f65d61a93","33","female",6199,12
"babble",1,"Evan","the sauce thickened","7426c3b1-64ff-4e61-b281-de3f65d61a93","33","female",4312,13
"radio",1,"Reese","the balloon popped","7426c3b1-64ff-4e61-b281-de3f65d61a93","33","female",4606,14
"pretend",-1,"Harper","the computer restarted","cef4cef9-ade4-456f-85cb-212cb8542e4a","31","female",9572,3
"mention",1,"Blake","the airbag deployed","cef4cef9-ade4-456f-85cb-212cb8542e4a","31","female",11114,5
"grunt",1,"Stevie","the sauce thickened","cef4cef9-ade4-456f-85cb-212cb8542e4a","31","female",11470,6
"warrant",1,"Reese","the gate opened","cef4cef9-ade4-456f-85cb-212cb8542e4a","31","female",13143,7
"quip",1,"Frankie","the bolt loosened","cef4cef9-ade4-456f-85cb-212cb8542e4a","31","female",11297,8
"question",1,"Evan","the balloon popped","cef4cef9-ade4-456f-85cb-212cb8542e4a","31","female",7875,9
"phone",1,"Jamie","the knot tightened","cef4cef9-ade4-456f-85cb-212cb8542e4a","31","female",16764,11
"jest",1,"Charlie","the paper burned","cef4cef9-ade4-456f-85cb-212cb8542e4a","31","female",10898,12
"argue",1,"Jordan","the factory closed","cef4cef9-ade4-456f-85cb-212cb8542e4a","31","female",7409,13
"demonstrate",-1,"Dylan","the room darkened","cef4cef9-ade4-456f-85cb-212cb8542e4a","31","female",6495,14
"retort",1,"Morgan","the egg cracked","cef4cef9-ade4-456f-85cb-212cb8542e4a","31","female",10230,15
"fax",1,"Stevie","the room darkened","739bd392-7254-4c2e-a0e2-7e0dfff8d818","34","female",5693,5
"mention",1,"Dylan","the bolt loosened","739bd392-7254-4c2e-a0e2-7e0dfff8d818","34","female",4221,6
"disclose",1,"Frankie","the knot tightened","739bd392-7254-4c2e-a0e2-7e0dfff8d818","34","female",3337,7
"jest",1,"Evan","the balloon popped","739bd392-7254-4c2e-a0e2-7e0dfff8d818","34","female",5221,8
"uphold",1,"Blake","the airbag deployed","739bd392-7254-4c2e-a0e2-7e0dfff8d818","34","female",5375,9
"joke",1,"Morgan","the computer restarted","739bd392-7254-4c2e-a0e2-7e0dfff8d818","34","female",4073,10
"spout",0.0600000000000001,"Reese","the sauce thickened","739bd392-7254-4c2e-a0e2-7e0dfff8d818","34","female",6925,11
"boast",1,"Harper","the factory closed","739bd392-7254-4c2e-a0e2-7e0dfff8d818","34","female",4190,12
"reassert",1,"Jamie","the paper burned","739bd392-7254-4c2e-a0e2-7e0dfff8d818","34","female",5051,13
"publicize",1,"Jordan","the egg cracked","739bd392-7254-4c2e-a0e2-7e0dfff8d818","34","female",3585,14
"relate",1,"Charlie","the gate opened","739bd392-7254-4c2e-a0e2-7e0dfff8d818","34","female",3385,15
"flaunt",0.7,"Reese","the balloon popped","e0cf1f98-0bf1-4090-8b1a-92783ec4ccfa","36","male",17945,3
"confess",1,"Dylan","the egg cracked","e0cf1f98-0bf1-4090-8b1a-92783ec4ccfa","36","male",8981,4
"specify",-0.38,"Harper","the bolt loosened","e0cf1f98-0bf1-4090-8b1a-92783ec4ccfa","36","male",20126,5
"tease",-0.04,"Morgan","the factory closed","e0cf1f98-0bf1-4090-8b1a-92783ec4ccfa","36","male",10185,6
"debate",0.54,"Charlie","the paper burned","e0cf1f98-0bf1-4090-8b1a-92783ec4ccfa","36","male",9549,7
"describe",0.84,"Evan","the room darkened","e0cf1f98-0bf1-4090-8b1a-92783ec4ccfa","36","male",8058,9
"uncover",0.78,"Stevie","the sauce thickened","e0cf1f98-0bf1-4090-8b1a-92783ec4ccfa","36","male",10460,10
"document",1,"Jamie","the airbag deployed","e0cf1f98-0bf1-4090-8b1a-92783ec4ccfa","36","male",7334,11
"clarify",0.02,"Blake","the computer restarted","e0cf1f98-0bf1-4090-8b1a-92783ec4ccfa","36","male",11952,12
"dispel",0.84,"Jordan","the knot tightened","e0cf1f98-0bf1-4090-8b1a-92783ec4ccfa","36","male",8689,13
"gab",1,"Frankie","the gate opened","e0cf1f98-0bf1-4090-8b1a-92783ec4ccfa","36","male",13175,15
"advertise",0.96,"Jordan","the airbag deployed","a0e5be70-c78d-4d54-9347-543002d252c9","30","female",10199,3
"expose",0.98,"Dylan","the paper burned","a0e5be70-c78d-4d54-9347-543002d252c9","30","female",4738,4
"reaffirm",0.96,"Frankie","the knot tightened","a0e5be70-c78d-4d54-9347-543002d252c9","30","female",4809,5
"narrate",0.98,"Jamie","the room darkened","a0e5be70-c78d-4d54-9347-543002d252c9","30","female",3703,6
"gasp",0.98,"Charlie","the balloon popped","a0e5be70-c78d-4d54-9347-543002d252c9","30","female",4171,7
"cheer",-0.94,"Evan","the egg cracked","a0e5be70-c78d-4d54-9347-543002d252c9","30","female",7619,8
"lie",1,"Harper","the bolt loosened","a0e5be70-c78d-4d54-9347-543002d252c9","30","female",6770,9
"joke",0.98,"Stevie","the computer restarted","a0e5be70-c78d-4d54-9347-543002d252c9","30","female",3607,10
"dispel",-0.96,"Morgan","the factory closed","a0e5be70-c78d-4d54-9347-543002d252c9","30","female",3405,11
"preach",-0.92,"Blake","the sauce thickened","a0e5be70-c78d-4d54-9347-543002d252c9","30","female",6413,12
"exclaim",-0.96,"Reese","the gate opened","a0e5be70-c78d-4d54-9347-543002d252c9","30","female",5700,15
"utter",-1,"Morgan","the room darkened","cb332d8a-6af0-4bc1-a445-04dad76be6fe","36","female",16383,3
"whisper",-0.62,"Frankie","the paper burned","cb332d8a-6af0-4bc1-a445-04dad76be6fe","36","female",13071,4
"admit",-0.96,"Evan","the gate opened","cb332d8a-6af0-4bc1-a445-04dad76be6fe","36","female",9414,5
"retract",-1,"Stevie","the bolt loosened","cb332d8a-6af0-4bc1-a445-04dad76be6fe","36","female",7135,6
"fabricate",1,"Charlie","the computer restarted","cb332d8a-6af0-4bc1-a445-04dad76be6fe","36","female",6022,8
"shout",1,"Harper","the factory closed","cb332d8a-6af0-4bc1-a445-04dad76be6fe","36","female",7064,9
"flaunt",1,"Jamie","the sauce thickened","cb332d8a-6af0-4bc1-a445-04dad76be6fe","36","female",4007,10
"point out",1,"Dylan","the balloon popped","cb332d8a-6af0-4bc1-a445-04dad76be6fe","36","female",6895,11
"whimper",1,"Jordan","the egg cracked","cb332d8a-6af0-4bc1-a445-04dad76be6fe","36","female",15975,13
"sigh",-1,"Blake","the knot tightened","cb332d8a-6af0-4bc1-a445-04dad76be6fe","36","female",9544,14
"exhibit",-0.96,"Reese","the airbag deployed","cb332d8a-6af0-4bc1-a445-04dad76be6fe","36","female",8582,15
"yell",0.86,"Jamie","the balloon popped","11cfc4be-697d-4058-8d07-d56be969435c","57","female",4764,3
"argue",0.94,"Morgan","the sauce thickened","11cfc4be-697d-4058-8d07-d56be969435c","57","female",4472,4
"disclose",0.9,"Frankie","the room darkened","11cfc4be-697d-4058-8d07-d56be969435c","57","female",3875,5
"guarantee",-0.32,"Jordan","the airbag deployed","11cfc4be-697d-4058-8d07-d56be969435c","57","female",8863,6
"answer",0.14,"Blake","the knot tightened","11cfc4be-697d-4058-8d07-d56be969435c","57","female",7354,8
"publish",0.78,"Evan","the factory closed","11cfc4be-697d-4058-8d07-d56be969435c","57","female",5343,9
"endorse",0.76,"Harper","the bolt loosened","11cfc4be-697d-4058-8d07-d56be969435c","57","female",11008,10
"dismiss",1,"Dylan","the gate opened","11cfc4be-697d-4058-8d07-d56be969435c","57","female",6095,11
"gloat",0.46,"Charlie","the computer restarted","11cfc4be-697d-4058-8d07-d56be969435c","57","female",4918,12
"mention",1,"Stevie","the paper burned","11cfc4be-697d-4058-8d07-d56be969435c","57","female",3549,13
"dispute",1,"Reese","the egg cracked","11cfc4be-697d-4058-8d07-d56be969435c","57","female",3626,15
"indicate",1,"Morgan","the balloon popped","7e19178c-6cda-495f-b7d4-848d6e7a3c6d","61","female",9311,3
"groan",1,"Stevie","the paper burned","7e19178c-6cda-495f-b7d4-848d6e7a3c6d","61","female",9961,4
"reaffirm",1,"Charlie","the bolt loosened","7e19178c-6cda-495f-b7d4-848d6e7a3c6d","61","female",7372,5
"type",1,"Jordan","the room darkened","7e19178c-6cda-495f-b7d4-848d6e7a3c6d","61","female",8579,7
"insist",1,"Blake","the computer restarted","7e19178c-6cda-495f-b7d4-848d6e7a3c6d","61","female",17346,8
"communicate",1,"Harper","the factory closed","7e19178c-6cda-495f-b7d4-848d6e7a3c6d","61","female",7679,9
"embellish",1,"Frankie","the gate opened","7e19178c-6cda-495f-b7d4-848d6e7a3c6d","61","female",6679,11
"complain",0.98,"Evan","the airbag deployed","7e19178c-6cda-495f-b7d4-848d6e7a3c6d","61","female",7413,12
"warn",1,"Dylan","the sauce thickened","7e19178c-6cda-495f-b7d4-848d6e7a3c6d","61","female",5297,13
"confirm",1,"Jamie","the egg cracked","7e19178c-6cda-495f-b7d4-848d6e7a3c6d","61","female",5645,14
"submit",1,"Reese","the knot tightened","7e19178c-6cda-495f-b7d4-848d6e7a3c6d","61","female",16196,15
"warn",1,"Harper","the egg cracked","ec56fd0c-0e64-4a41-b004-a65608d3ab05","42","female",6831,4
"posit",1,"Stevie","the airbag deployed","ec56fd0c-0e64-4a41-b004-a65608d3ab05","42","female",7064,5
"state",1,"Reese","the gate opened","ec56fd0c-0e64-4a41-b004-a65608d3ab05","42","female",11131,6
"circulate",1,"Jordan","the computer restarted","ec56fd0c-0e64-4a41-b004-a65608d3ab05","42","female",4948,7
"divulge",1,"Jamie","the balloon popped","ec56fd0c-0e64-4a41-b004-a65608d3ab05","42","female",5298,8
"think",-1,"Dylan","the factory closed","ec56fd0c-0e64-4a41-b004-a65608d3ab05","42","female",7198,9
"scoff",1,"Charlie","the sauce thickened","ec56fd0c-0e64-4a41-b004-a65608d3ab05","42","female",5231,10
"contend",1,"Frankie","the bolt loosened","ec56fd0c-0e64-4a41-b004-a65608d3ab05","42","female",6881,11
"corroborate",1,"Blake","the knot tightened","ec56fd0c-0e64-4a41-b004-a65608d3ab05","42","female",6782,12
"utter",1,"Morgan","the paper burned","ec56fd0c-0e64-4a41-b004-a65608d3ab05","42","female",9198,14
"remark",1,"Evan","the room darkened","ec56fd0c-0e64-4a41-b004-a65608d3ab05","42","female",17215,15
"log",1,"Frankie","the egg cracked","1984e371-3866-4945-8282-83882ea9260a","49","female",7447,3
"gush",1,"Dylan","the knot tightened","1984e371-3866-4945-8282-83882ea9260a","49","female",6983,5
"reiterate",1,"Reese","the airbag deployed","1984e371-3866-4945-8282-83882ea9260a","49","female",8233,6
"quip",1,"Harper","the sauce thickened","1984e371-3866-4945-8282-83882ea9260a","49","female",6113,7
"maintain",1,"Jamie","the room darkened","1984e371-3866-4945-8282-83882ea9260a","49","female",5363,8
"fax",1,"Stevie","the gate opened","1984e371-3866-4945-8282-83882ea9260a","49","female",5394,9
"stress",1,"Jordan","the bolt loosened","1984e371-3866-4945-8282-83882ea9260a","49","female",5631,11
"utter",1,"Morgan","the balloon popped","1984e371-3866-4945-8282-83882ea9260a","49","female",5930,12
"spout",1,"Evan","the computer restarted","1984e371-3866-4945-8282-83882ea9260a","49","female",5387,13
"gloat",1,"Charlie","the factory closed","1984e371-3866-4945-8282-83882ea9260a","49","female",5733,14
"respond",1,"Blake","the paper burned","1984e371-3866-4945-8282-83882ea9260a","49","female",4553,15
"challenge",1,"Reese","the sauce thickened","5ee568e6-c5b4-4557-b492-86b60e9e6ced","32","male",10462,3
"bellow",1,"Dylan","the computer restarted","5ee568e6-c5b4-4557-b492-86b60e9e6ced","32","male",6650,4
"retort",-1,"Harper","the room darkened","5ee568e6-c5b4-4557-b492-86b60e9e6ced","32","male",8492,5
"summarize",-1,"Evan","the balloon popped","5ee568e6-c5b4-4557-b492-86b60e9e6ced","32","male",7588,6
"attest",-1,"Frankie","the airbag deployed","5ee568e6-c5b4-4557-b492-86b60e9e6ced","32","male",4516,8
"cheer",-1,"Morgan","the factory closed","5ee568e6-c5b4-4557-b492-86b60e9e6ced","32","male",5485,9
"log",-1,"Jamie","the gate opened","5ee568e6-c5b4-4557-b492-86b60e9e6ced","32","male",4555,10
"contest",-1,"Charlie","the egg cracked","5ee568e6-c5b4-4557-b492-86b60e9e6ced","32","male",4527,11
"affirm",-1,"Jordan","the paper burned","5ee568e6-c5b4-4557-b492-86b60e9e6ced","32","male",4010,12
"debate",-1,"Stevie","the knot tightened","5ee568e6-c5b4-4557-b492-86b60e9e6ced","32","male",5073,13
"stammer",-1,"Blake","the bolt loosened","5ee568e6-c5b4-4557-b492-86b60e9e6ced","32","male",6453,14
"phone",-0.56,"Dylan","the gate opened","99ba50e7-2468-4d73-a903-cd9cbc70fe06","43","female",16671,4
"stress",1,"Charlie","the bolt loosened","99ba50e7-2468-4d73-a903-cd9cbc70fe06","43","female",9771,5
"scream",0.42,"Evan","the room darkened","99ba50e7-2468-4d73-a903-cd9cbc70fe06","43","female",9250,6
"mumble",-0.3,"Stevie","the sauce thickened","99ba50e7-2468-4d73-a903-cd9cbc70fe06","43","female",9243,8
"squeal",-0.2,"Morgan","the egg cracked","99ba50e7-2468-4d73-a903-cd9cbc70fe06","43","female",6972,9
"state",-0.28,"Reese","the computer restarted","99ba50e7-2468-4d73-a903-cd9cbc70fe06","43","female",8467,10
"grunt",-0.22,"Jordan","the balloon popped","99ba50e7-2468-4d73-a903-cd9cbc70fe06","43","female",7012,11
"bitch",-0.26,"Frankie","the knot tightened","99ba50e7-2468-4d73-a903-cd9cbc70fe06","43","female",6244,12
"announce",0.32,"Harper","the airbag deployed","99ba50e7-2468-4d73-a903-cd9cbc70fe06","43","female",5485,13
"question",0.24,"Jamie","the paper burned","99ba50e7-2468-4d73-a903-cd9cbc70fe06","43","female",6517,14
"sketch",0.32,"Blake","the factory closed","99ba50e7-2468-4d73-a903-cd9cbc70fe06","43","female",8154,15
"uphold",-1,"Charlie","the gate opened","637212af-7c5c-4e94-85bd-88895a99e29f","36","female",7591,3
"propose",-1,"Reese","the balloon popped","637212af-7c5c-4e94-85bd-88895a99e29f","36","female",12439,4
"reaffirm",0,"Dylan","the room darkened","637212af-7c5c-4e94-85bd-88895a99e29f","36","female",17687,5
"challenge",1,"Morgan","the airbag deployed","637212af-7c5c-4e94-85bd-88895a99e29f","36","female",11520,6
"leak",1,"Jordan","the egg cracked","637212af-7c5c-4e94-85bd-88895a99e29f","36","female",10470,7
"quip",0.48,"Evan","the sauce thickened","637212af-7c5c-4e94-85bd-88895a99e29f","36","female",7111,8
"declare",1,"Frankie","the bolt loosened","637212af-7c5c-4e94-85bd-88895a99e29f","36","female",5735,11
"say",0.18,"Stevie","the knot tightened","637212af-7c5c-4e94-85bd-88895a99e29f","36","female",10360,12
"announce",1,"Blake","the paper burned","637212af-7c5c-4e94-85bd-88895a99e29f","36","female",6671,13
"grumble",0.62,"Harper","the computer restarted","637212af-7c5c-4e94-85bd-88895a99e29f","36","female",8007,14
"rave",1,"Jamie","the factory closed","637212af-7c5c-4e94-85bd-88895a99e29f","36","female",5367,15
"attest",1,"Charlie","the knot tightened","192ff8fa-7255-48a6-a0af-3822ebcb2882","59","female",7841,3
"signal",1,"Evan","the room darkened","192ff8fa-7255-48a6-a0af-3822ebcb2882","59","female",6554,4
"gasp",1,"Morgan","the paper burned","192ff8fa-7255-48a6-a0af-3822ebcb2882","59","female",5556,6
"complain",1,"Stevie","the bolt loosened","192ff8fa-7255-48a6-a0af-3822ebcb2882","59","female",4820,7
"communicate",1,"Harper","the airbag deployed","192ff8fa-7255-48a6-a0af-3822ebcb2882","59","female",5702,8
"flaunt",1,"Jamie","the factory closed","192ff8fa-7255-48a6-a0af-3822ebcb2882","59","female",5017,9
"grumble",1,"Reese","the computer restarted","192ff8fa-7255-48a6-a0af-3822ebcb2882","59","female",4421,10
"answer",0,"Frankie","the egg cracked","192ff8fa-7255-48a6-a0af-3822ebcb2882","59","female",9823,11
"discuss",0,"Blake","the sauce thickened","192ff8fa-7255-48a6-a0af-3822ebcb2882","59","female",7719,13
"dispel",1,"Dylan","the balloon popped","192ff8fa-7255-48a6-a0af-3822ebcb2882","59","female",9016,14
"cheer",1,"Jordan","the gate opened","192ff8fa-7255-48a6-a0af-3822ebcb2882","59","female",4505,15
"charge",-0.48,"Morgan","the airbag deployed","9b83b6f0-ed8e-4d2f-9eb9-325beca4d866","28","male",10111,3
"signal",-0.78,"Frankie","the factory closed","9b83b6f0-ed8e-4d2f-9eb9-325beca4d866","28","male",6546,4
"remark",-0.7,"Stevie","the paper burned","9b83b6f0-ed8e-4d2f-9eb9-325beca4d866","28","male",4847,5
"maintain",-0.68,"Jordan","the sauce thickened","9b83b6f0-ed8e-4d2f-9eb9-325beca4d866","28","male",4767,6
"sketch",-0.56,"Blake","the gate opened","9b83b6f0-ed8e-4d2f-9eb9-325beca4d866","28","male",5990,8
"circulate",1,"Reese","the knot tightened","9b83b6f0-ed8e-4d2f-9eb9-325beca4d866","28","male",6775,9
"disclose",1,"Dylan","the balloon popped","9b83b6f0-ed8e-4d2f-9eb9-325beca4d866","28","male",4110,10
"murmur",1,"Charlie","the bolt loosened","9b83b6f0-ed8e-4d2f-9eb9-325beca4d866","28","male",5816,11
"dismiss",1,"Harper","the room darkened","9b83b6f0-ed8e-4d2f-9eb9-325beca4d866","28","male",3954,12
"rant",1,"Jamie","the computer restarted","9b83b6f0-ed8e-4d2f-9eb9-325beca4d866","28","male",8924,14
"fess up",1,"Evan","the egg cracked","9b83b6f0-ed8e-4d2f-9eb9-325beca4d866","28","male",4485,15
"sigh",1,"Frankie","the computer restarted","4d7f4c97-5286-4e86-85b8-a468e67f7a03","61","female",15680,3
"grumble",1,"Evan","the knot tightened","4d7f4c97-5286-4e86-85b8-a468e67f7a03","61","female",7512,4
"groan",1,"Reese","the bolt loosened","4d7f4c97-5286-4e86-85b8-a468e67f7a03","61","female",46283,5
"broadcast",1,"Jamie","the sauce thickened","4d7f4c97-5286-4e86-85b8-a468e67f7a03","61","female",5992,6
"attest",0.52,"Dylan","the airbag deployed","4d7f4c97-5286-4e86-85b8-a468e67f7a03","61","female",14196,7
"voice",0.02,"Stevie","the room darkened","4d7f4c97-5286-4e86-85b8-a468e67f7a03","61","female",6182,9
"specify",0.26,"Morgan","the paper burned","4d7f4c97-5286-4e86-85b8-a468e67f7a03","61","female",9968,10
"describe",-0.14,"Jordan","the gate opened","4d7f4c97-5286-4e86-85b8-a468e67f7a03","61","female",29992,11
"think",-0.22,"Blake","the factory closed","4d7f4c97-5286-4e86-85b8-a468e67f7a03","61","female",71292,12
"boast",0.14,"Harper","the balloon popped","4d7f4c97-5286-4e86-85b8-a468e67f7a03","61","female",5931,13
"apologize",0.74,"Charlie","the egg cracked","4d7f4c97-5286-4e86-85b8-a468e67f7a03","61","female",5289,14
"report",-0.04,"Jordan","the egg cracked","53fe69b7-ccfb-4627-bc30-56aadf47662c","35","male",7030,3
"cheer",0.02,"Evan","the airbag deployed","53fe69b7-ccfb-4627-bc30-56aadf47662c","35","male",11627,4
"posit",-0.4,"Blake","the balloon popped","53fe69b7-ccfb-4627-bc30-56aadf47662c","35","male",7054,5
"uphold",0.02,"Dylan","the knot tightened","53fe69b7-ccfb-4627-bc30-56aadf47662c","35","male",6667,6
"promise",0,"Stevie","the room darkened","53fe69b7-ccfb-4627-bc30-56aadf47662c","35","male",13117,7
"blog",-0.16,"Harper","the gate opened","53fe69b7-ccfb-4627-bc30-56aadf47662c","35","male",8002,8
"testify",-0.04,"Frankie","the bolt loosened","53fe69b7-ccfb-4627-bc30-56aadf47662c","35","male",7740,9
"display",-0.24,"Charlie","the computer restarted","53fe69b7-ccfb-4627-bc30-56aadf47662c","35","male",10328,10
"radio",1,"Reese","the paper burned","53fe69b7-ccfb-4627-bc30-56aadf47662c","35","male",6340,12
"summarize",1,"Morgan","the factory closed","53fe69b7-ccfb-4627-bc30-56aadf47662c","35","male",5116,13
"contest",0.72,"Jamie","the sauce thickened","53fe69b7-ccfb-4627-bc30-56aadf47662c","35","male",8400,14
"hint",-1,"Charlie","the egg cracked","e32f3f95-7e10-480c-8f57-2a9535bcce13","51","female",18778,3
"demonstrate",1,"Evan","the gate opened","e32f3f95-7e10-480c-8f57-2a9535bcce13","51","female",11320,4
"rant",1,"Frankie","the paper burned","e32f3f95-7e10-480c-8f57-2a9535bcce13","51","female",5686,5
"assert",-1,"Morgan","the airbag deployed","e32f3f95-7e10-480c-8f57-2a9535bcce13","51","female",10252,6
"say",1,"Jordan","the room darkened","e32f3f95-7e10-480c-8f57-2a9535bcce13","51","female",10222,7
"establish",-1,"Harper","the sauce thickened","e32f3f95-7e10-480c-8f57-2a9535bcce13","51","female",7757,8
"scoff",1,"Reese","the factory closed","e32f3f95-7e10-480c-8f57-2a9535bcce13","51","female",5551,10
"guarantee",-1,"Dylan","the knot tightened","e32f3f95-7e10-480c-8f57-2a9535bcce13","51","female",9568,11
"snitch",1,"Blake","the computer restarted","e32f3f95-7e10-480c-8f57-2a9535bcce13","51","female",4859,12
"explain",1,"Jamie","the balloon popped","e32f3f95-7e10-480c-8f57-2a9535bcce13","51","female",5778,14
"stammer",1,"Stevie","the bolt loosened","e32f3f95-7e10-480c-8f57-2a9535bcce13","51","female",4210,15
"shout",0.22,"Morgan","the computer restarted","06cd1dcc-216f-4533-a07c-7c65927cdfc8","31","female",14120,3
"pout",0.98,"Harper","the balloon popped","06cd1dcc-216f-4533-a07c-7c65927cdfc8","31","female",6913,4
"declare",0.18,"Reese","the factory closed","06cd1dcc-216f-4533-a07c-7c65927cdfc8","31","female",11839,5
"imply",0.4,"Evan","the knot tightened","06cd1dcc-216f-4533-a07c-7c65927cdfc8","31","female",23901,6
"scoff",0.7,"Charlie","the gate opened","06cd1dcc-216f-4533-a07c-7c65927cdfc8","31","female",25679,7
"narrate",0.46,"Blake","the paper burned","06cd1dcc-216f-4533-a07c-7c65927cdfc8","31","female",148215,8
"share",0.16,"Jamie","the sauce thickened","06cd1dcc-216f-4533-a07c-7c65927cdfc8","31","female",4711,10
"circulate",-0.34,"Frankie","the egg cracked","06cd1dcc-216f-4533-a07c-7c65927cdfc8","31","female",5143,11
"bitch",0.56,"Jordan","the airbag deployed","06cd1dcc-216f-4533-a07c-7c65927cdfc8","31","female",4731,12
"yell",0.64,"Dylan","the room darkened","06cd1dcc-216f-4533-a07c-7c65927cdfc8","31","female",40649,13
"reject",0.56,"Stevie","the bolt loosened","06cd1dcc-216f-4533-a07c-7c65927cdfc8","31","female",7799,15
"indicate",1,"Reese","the sauce thickened","f747858e-a00e-488c-9304-a7bf8302c0cd","69","female",10852,3
"suggest",1,"Morgan","the room darkened","f747858e-a00e-488c-9304-a7bf8302c0cd","69","female",14429,4
"shout",0,"Frankie","the knot tightened","f747858e-a00e-488c-9304-a7bf8302c0cd","69","female",9864,5
"advertise",1,"Jamie","the gate opened","f747858e-a00e-488c-9304-a7bf8302c0cd","69","female",6573,6
"retract",1,"Charlie","the balloon popped","f747858e-a00e-488c-9304-a7bf8302c0cd","69","female",9272,7
"warn",0,"Harper","the paper burned","f747858e-a00e-488c-9304-a7bf8302c0cd","69","female",11064,9
"maintain",0,"Blake","the airbag deployed","f747858e-a00e-488c-9304-a7bf8302c0cd","69","female",12392,10
"know",1,"Stevie","the computer restarted","f747858e-a00e-488c-9304-a7bf8302c0cd","69","female",6295,11
"whimper",0.04,"Jordan","the egg cracked","f747858e-a00e-488c-9304-a7bf8302c0cd","69","female",15671,12
"moan",1,"Dylan","the factory closed","f747858e-a00e-488c-9304-a7bf8302c0cd","69","female",8857,14
"grunt",1,"Evan","the bolt loosened","f747858e-a00e-488c-9304-a7bf8302c0cd","69","female",11000,15
"reassert",-0.04,"Blake","the room darkened","50448958-234a-4150-80ed-9a5f32955b96","54","male",15385,3
"preach",0,"Frankie","the computer restarted","50448958-234a-4150-80ed-9a5f32955b96","54","male",9052,4
"praise",0.26,"Reese","the bolt loosened","50448958-234a-4150-80ed-9a5f32955b96","54","male",12723,5
"contend",0.12,"Morgan","the gate opened","50448958-234a-4150-80ed-9a5f32955b96","54","male",10545,6
"pretend",-0.2,"Dylan","the airbag deployed","50448958-234a-4150-80ed-9a5f32955b96","54","male",15546,7
"mention",0.88,"Jamie","the egg cracked","50448958-234a-4150-80ed-9a5f32955b96","54","male",10263,8
"bitch",0.92,"Jordan","the sauce thickened","50448958-234a-4150-80ed-9a5f32955b96","54","male",7758,9
"vow",0.66,"Charlie","the knot tightened","50448958-234a-4150-80ed-9a5f32955b96","54","male",11219,11
"dispel",1,"Evan","the paper burned","50448958-234a-4150-80ed-9a5f32955b96","54","male",6592,12
"restate",1,"Stevie","the factory closed","50448958-234a-4150-80ed-9a5f32955b96","54","male",5282,13
"convey",0.82,"Harper","the balloon popped","50448958-234a-4150-80ed-9a5f32955b96","54","male",8399,15
"praise",-1,"Morgan","the bolt loosened","214e1361-9302-47fe-9ca0-85451ea17d94","33","male",7286,3
"scoff",-1,"Harper","the paper burned","214e1361-9302-47fe-9ca0-85451ea17d94","33","male",9684,4
"imply",-1,"Evan","the airbag deployed","214e1361-9302-47fe-9ca0-85451ea17d94","33","male",5520,6
"chant",-1,"Jamie","the sauce thickened","214e1361-9302-47fe-9ca0-85451ea17d94","33","male",2649,7
"reaffirm",-1,"Charlie","the knot tightened","214e1361-9302-47fe-9ca0-85451ea17d94","33","male",2817,8
"answer",-1,"Blake","the gate opened","214e1361-9302-47fe-9ca0-85451ea17d94","33","male",4379,9
"narrate",-1,"Dylan","the balloon popped","214e1361-9302-47fe-9ca0-85451ea17d94","33","male",5746,11
"exhibit",-1,"Reese","the egg cracked","214e1361-9302-47fe-9ca0-85451ea17d94","33","male",2726,12
"murmur",-1,"Jordan","the factory closed","214e1361-9302-47fe-9ca0-85451ea17d94","33","male",4066,13
"rave",-1,"Frankie","the computer restarted","214e1361-9302-47fe-9ca0-85451ea17d94","33","male",2711,14
"argue",1,"Stevie","the room darkened","214e1361-9302-47fe-9ca0-85451ea17d94","33","male",4473,15
"deny",1,"Harper","the egg cracked","8889b929-a547-41c8-afda-e8a7d397b85a","42","male",9603,3
"certify",-1,"Blake","the paper burned","8889b929-a547-41c8-afda-e8a7d397b85a","42","male",6171,5
"reply",-0.26,"Jordan","the computer restarted","8889b929-a547-41c8-afda-e8a7d397b85a","42","male",10131,7
"rant",0.4,"Stevie","the gate opened","8889b929-a547-41c8-afda-e8a7d397b85a","42","male",8581,8
"pretend",-1,"Reese","the factory closed","8889b929-a547-41c8-afda-e8a7d397b85a","42","male",9966,9
"flaunt",0.98,"Charlie","the balloon popped","8889b929-a547-41c8-afda-e8a7d397b85a","42","male",6691,10
"circulate",0.82,"Jamie","the room darkened","8889b929-a547-41c8-afda-e8a7d397b85a","42","male",5441,11
"relate",1,"Evan","the bolt loosened","8889b929-a547-41c8-afda-e8a7d397b85a","42","male",7255,12
"denounce",1,"Morgan","the knot tightened","8889b929-a547-41c8-afda-e8a7d397b85a","42","male",5528,13
"jest",0.62,"Dylan","the sauce thickened","8889b929-a547-41c8-afda-e8a7d397b85a","42","male",6952,14
"announce",-0.56,"Frankie","the airbag deployed","8889b929-a547-41c8-afda-e8a7d397b85a","42","male",11353,15
"reiterate",0.94,"Charlie","the factory closed","9668e36d-7a65-459b-835b-bd21c3b0f7eb","40","female",8684,3
"sketch",0.22,"Stevie","the airbag deployed","9668e36d-7a65-459b-835b-bd21c3b0f7eb","40","female",8985,4
"comment",0.9,"Dylan","the gate opened","9668e36d-7a65-459b-835b-bd21c3b0f7eb","40","female",5431,5
"certify",-0.36,"Frankie","the bolt loosened","9668e36d-7a65-459b-835b-bd21c3b0f7eb","40","female",9411,6
"mention",0.48,"Harper","the balloon popped","9668e36d-7a65-459b-835b-bd21c3b0f7eb","40","female",5621,7
"claim",-0.12,"Jamie","the room darkened","9668e36d-7a65-459b-835b-bd21c3b0f7eb","40","female",4234,8
"scribble",-0.28,"Reese","the knot tightened","9668e36d-7a65-459b-835b-bd21c3b0f7eb","40","female",7926,10
"showcase",1,"Jordan","the egg cracked","9668e36d-7a65-459b-835b-bd21c3b0f7eb","40","female",4689,11
"weep",0.4,"Morgan","the sauce thickened","9668e36d-7a65-459b-835b-bd21c3b0f7eb","40","female",7879,13
"explain",0.66,"Blake","the computer restarted","9668e36d-7a65-459b-835b-bd21c3b0f7eb","40","female",5626,14
"reveal",0.34,"Evan","the paper burned","9668e36d-7a65-459b-835b-bd21c3b0f7eb","40","female",4651,15
"argue",1,"Stevie","the bolt loosened","81326024-78b8-46a0-8c25-710706c9943d","47","female",5607,3
"fuss",1,"Harper","the factory closed","81326024-78b8-46a0-8c25-710706c9943d","47","female",3985,4
"convey",1,"Blake","the egg cracked","81326024-78b8-46a0-8c25-710706c9943d","47","female",9180,5
"flaunt",1,"Morgan","the gate opened","81326024-78b8-46a0-8c25-710706c9943d","47","female",4038,6
"complain",1,"Jamie","the airbag deployed","81326024-78b8-46a0-8c25-710706c9943d","47","female",5304,8
"chatter",1,"Frankie","the room darkened","81326024-78b8-46a0-8c25-710706c9943d","47","female",4493,9
"log",1,"Evan","the computer restarted","81326024-78b8-46a0-8c25-710706c9943d","47","female",4848,10
"state",1,"Jordan","the sauce thickened","81326024-78b8-46a0-8c25-710706c9943d","47","female",5333,11
"relate",1,"Reese","the balloon popped","81326024-78b8-46a0-8c25-710706c9943d","47","female",3825,12
"quarrel",1,"Dylan","the paper burned","81326024-78b8-46a0-8c25-710706c9943d","47","female",3817,13
"write",1,"Charlie","the knot tightened","81326024-78b8-46a0-8c25-710706c9943d","47","female",8519,15
"depict",1,"Evan","the room darkened","18055f94-8489-425e-ab45-baa50a909955","43","female",17608,3
"posit",1,"Harper","the egg cracked","18055f94-8489-425e-ab45-baa50a909955","43","female",15758,4
"charge",1,"Morgan","the balloon popped","18055f94-8489-425e-ab45-baa50a909955","43","female",15502,5
"convey",1,"Dylan","the factory closed","18055f94-8489-425e-ab45-baa50a909955","43","female",15312,6
"tweet",1,"Blake","the airbag deployed","18055f94-8489-425e-ab45-baa50a909955","43","female",15486,7
"email",1,"Jordan","the knot tightened","18055f94-8489-425e-ab45-baa50a909955","43","female",23436,8
"relate",1,"Charlie","the bolt loosened","18055f94-8489-425e-ab45-baa50a909955","43","female",14375,9
"certify",1,"Stevie","the computer restarted","18055f94-8489-425e-ab45-baa50a909955","43","female",16764,10
"guarantee",-1,"Reese","the paper burned","18055f94-8489-425e-ab45-baa50a909955","43","female",14450,12
"think",1,"Jamie","the gate opened","18055f94-8489-425e-ab45-baa50a909955","43","female",13267,14
"boast",1,"Frankie","the sauce thickened","18055f94-8489-425e-ab45-baa50a909955","43","female",17258,15
"pretend",1,"Jamie","the egg cracked","444c7983-a3b9-40a6-b6c2-4e8f1180084a","48","male",14723,3
"shriek",0.1,"Reese","the room darkened","444c7983-a3b9-40a6-b6c2-4e8f1180084a","48","male",14143,4
"state",-0.3,"Evan","the sauce thickened","444c7983-a3b9-40a6-b6c2-4e8f1180084a","48","male",7221,5
"debate",0.56,"Blake","the airbag deployed","444c7983-a3b9-40a6-b6c2-4e8f1180084a","48","male",5001,6
"prove",0.16,"Charlie","the knot tightened","444c7983-a3b9-40a6-b6c2-4e8f1180084a","48","male",8142,7
"praise",0.24,"Dylan","the paper burned","444c7983-a3b9-40a6-b6c2-4e8f1180084a","48","male",8583,8
"grunt",0.34,"Morgan","the balloon popped","444c7983-a3b9-40a6-b6c2-4e8f1180084a","48","male",4359,9
"know",0.6,"Jordan","the factory closed","444c7983-a3b9-40a6-b6c2-4e8f1180084a","48","male",6625,10
"respond",0.58,"Stevie","the gate opened","444c7983-a3b9-40a6-b6c2-4e8f1180084a","48","male",6091,11
"sigh",0.42,"Harper","the bolt loosened","444c7983-a3b9-40a6-b6c2-4e8f1180084a","48","male",4931,12
"publicize",0.96,"Frankie","the computer restarted","444c7983-a3b9-40a6-b6c2-4e8f1180084a","48","male",5217,15
"whine",1,"Frankie","the gate opened","3de08011-8868-4823-be89-7221cd3743f7","52","female",8971,4
"hint",1,"Jordan","the knot tightened","3de08011-8868-4823-be89-7221cd3743f7","52","female",5871,5
"insist",0.8,"Reese","the factory closed","3de08011-8868-4823-be89-7221cd3743f7","52","female",12860,7
"record",0.98,"Jamie","the room darkened","3de08011-8868-4823-be89-7221cd3743f7","52","female",5999,8
"confide",1,"Blake","the balloon popped","3de08011-8868-4823-be89-7221cd3743f7","52","female",5883,9
"howl",1,"Dylan","the computer restarted","3de08011-8868-4823-be89-7221cd3743f7","52","female",5459,10
"apologize",1,"Charlie","the paper burned","3de08011-8868-4823-be89-7221cd3743f7","52","female",6575,11
"lie",0.0600000000000001,"Harper","the sauce thickened","3de08011-8868-4823-be89-7221cd3743f7","52","female",11951,12
"uncover",1,"Stevie","the egg cracked","3de08011-8868-4823-be89-7221cd3743f7","52","female",6886,13
"repeat",0.04,"Morgan","the bolt loosened","3de08011-8868-4823-be89-7221cd3743f7","52","female",7911,14
"articulate",1,"Evan","the airbag deployed","3de08011-8868-4823-be89-7221cd3743f7","52","female",6991,15
"murmur",0.02,"Morgan","the sauce thickened","bc9d7802-1678-49be-9ebd-7af514da1dfe","51","male",10923,3
"mark",0.0800000000000001,"Blake","the computer restarted","bc9d7802-1678-49be-9ebd-7af514da1dfe","51","male",12279,4
"submit",0.14,"Evan","the gate opened","bc9d7802-1678-49be-9ebd-7af514da1dfe","51","male",8041,5
"pout",0.98,"Jordan","the egg cracked","bc9d7802-1678-49be-9ebd-7af514da1dfe","51","male",6126,6
"elaborate",0.42,"Harper","the paper burned","bc9d7802-1678-49be-9ebd-7af514da1dfe","51","male",6391,7
"challenge",0.0600000000000001,"Jamie","the balloon popped","bc9d7802-1678-49be-9ebd-7af514da1dfe","51","male",7781,8
"warrant",0.04,"Reese","the room darkened","bc9d7802-1678-49be-9ebd-7af514da1dfe","51","male",6803,9
"relate",0.12,"Dylan","the factory closed","bc9d7802-1678-49be-9ebd-7af514da1dfe","51","male",6546,11
"guarantee",0.02,"Frankie","the knot tightened","bc9d7802-1678-49be-9ebd-7af514da1dfe","51","male",7338,12
"groan",0.38,"Stevie","the bolt loosened","bc9d7802-1678-49be-9ebd-7af514da1dfe","51","male",7481,14
"answer",0.04,"Charlie","the airbag deployed","bc9d7802-1678-49be-9ebd-7af514da1dfe","51","male",6019,15
"brag",0.42,"Evan","the gate opened","4e1ed491-0efd-4eb2-8b43-6cb3ace9baef","32","male",7648,3
"scribble",-0.16,"Charlie","the room darkened","4e1ed491-0efd-4eb2-8b43-6cb3ace9baef","32","male",6083,5
"fuss",1,"Blake","the sauce thickened","4e1ed491-0efd-4eb2-8b43-6cb3ace9baef","32","male",5827,6
"describe",-0.7,"Jamie","the paper burned","4e1ed491-0efd-4eb2-8b43-6cb3ace9baef","32","male",20144,7
"publicize",-0.26,"Dylan","the computer restarted","4e1ed491-0efd-4eb2-8b43-6cb3ace9baef","32","male",6478,9
"insist",0.14,"Jordan","the bolt loosened","4e1ed491-0efd-4eb2-8b43-6cb3ace9baef","32","male",28540,10
"fabricate",-0.14,"Frankie","the knot tightened","4e1ed491-0efd-4eb2-8b43-6cb3ace9baef","32","male",10441,11
"sing",-0.3,"Harper","the factory closed","4e1ed491-0efd-4eb2-8b43-6cb3ace9baef","32","male",5622,12
"pretend",-0.66,"Stevie","the airbag deployed","4e1ed491-0efd-4eb2-8b43-6cb3ace9baef","32","male",4589,13
"report",-0.1,"Reese","the egg cracked","4e1ed491-0efd-4eb2-8b43-6cb3ace9baef","32","male",5761,14
"reply",-0.18,"Morgan","the balloon popped","4e1ed491-0efd-4eb2-8b43-6cb3ace9baef","32","male",4352,15
"posit",1,"Dylan","the knot tightened","c3c04e26-b0a0-4516-acdd-2599fec360bf","61","female",15836,3
"voice",0,"Evan","the airbag deployed","c3c04e26-b0a0-4516-acdd-2599fec360bf","61","female",8730,4
"shout",0.54,"Blake","the factory closed","c3c04e26-b0a0-4516-acdd-2599fec360bf","61","female",9483,6
"contest",1,"Reese","the gate opened","c3c04e26-b0a0-4516-acdd-2599fec360bf","61","female",9639,7
"share",1,"Harper","the sauce thickened","c3c04e26-b0a0-4516-acdd-2599fec360bf","61","female",7352,8
"indicate",-0.02,"Jordan","the bolt loosened","c3c04e26-b0a0-4516-acdd-2599fec360bf","61","female",7779,9
"address",1,"Frankie","the paper burned","c3c04e26-b0a0-4516-acdd-2599fec360bf","61","female",7152,10
"publicize",1,"Charlie","the computer restarted","c3c04e26-b0a0-4516-acdd-2599fec360bf","61","female",6251,11
"recap",0,"Stevie","the egg cracked","c3c04e26-b0a0-4516-acdd-2599fec360bf","61","female",11643,12
"mumble",0,"Jamie","the balloon popped","c3c04e26-b0a0-4516-acdd-2599fec360bf","61","female",9324,14
"state",0,"Morgan","the room darkened","c3c04e26-b0a0-4516-acdd-2599fec360bf","61","female",10327,15
"chant",-0.14,"Jordan","the bolt loosened","2ae1c3b2-716e-4766-98f6-16b2f22a606c","56","female",12858,3
"submit",-0.08,"Reese","the sauce thickened","2ae1c3b2-716e-4766-98f6-16b2f22a606c","56","female",10880,4
"publicize",0.46,"Morgan","the paper burned","2ae1c3b2-716e-4766-98f6-16b2f22a606c","56","female",12343,6
"mumble",-0.04,"Dylan","the factory closed","2ae1c3b2-716e-4766-98f6-16b2f22a606c","56","female",7023,7
"scoff",0.98,"Harper","the egg cracked","2ae1c3b2-716e-4766-98f6-16b2f22a606c","56","female",8046,8
"demonstrate",-0.3,"Evan","the computer restarted","2ae1c3b2-716e-4766-98f6-16b2f22a606c","56","female",8784,9
"repeat",0.18,"Charlie","the knot tightened","2ae1c3b2-716e-4766-98f6-16b2f22a606c","56","female",6951,10
"confess",0.62,"Jamie","the gate opened","2ae1c3b2-716e-4766-98f6-16b2f22a606c","56","female",9221,11
"mutter",0,"Stevie","the airbag deployed","2ae1c3b2-716e-4766-98f6-16b2f22a606c","56","female",5962,12
"challenge",0.7,"Frankie","the room darkened","2ae1c3b2-716e-4766-98f6-16b2f22a606c","56","female",10966,13
"dismiss",0.66,"Blake","the balloon popped","2ae1c3b2-716e-4766-98f6-16b2f22a606c","56","female",10253,14
"detail",0.62,"Jordan","the airbag deployed","06d6857f-f5e5-4989-b6a1-c7ce47461b38","37","female",7565,3
"whimper",1,"Frankie","the knot tightened","06d6857f-f5e5-4989-b6a1-c7ce47461b38","37","female",4312,5
"mention",0.38,"Harper","the egg cracked","06d6857f-f5e5-4989-b6a1-c7ce47461b38","37","female",4819,6
"reveal",0.9,"Morgan","the bolt loosened","06d6857f-f5e5-4989-b6a1-c7ce47461b38","37","female",4385,7
"discuss",1,"Stevie","the paper burned","06d6857f-f5e5-4989-b6a1-c7ce47461b38","37","female",4412,8
"deny",1,"Jamie","the sauce thickened","06d6857f-f5e5-4989-b6a1-c7ce47461b38","37","female",4249,10
"fake",1,"Dylan","the room darkened","06d6857f-f5e5-4989-b6a1-c7ce47461b38","37","female",3348,11
"confess",0.88,"Blake","the gate opened","06d6857f-f5e5-4989-b6a1-c7ce47461b38","37","female",4327,12
"bicker",1,"Reese","the factory closed","06d6857f-f5e5-4989-b6a1-c7ce47461b38","37","female",5133,13
"allege",0,"Evan","the computer restarted","06d6857f-f5e5-4989-b6a1-c7ce47461b38","37","female",7317,14
"imply",0.58,"Charlie","the balloon popped","06d6857f-f5e5-4989-b6a1-c7ce47461b38","37","female",9521,15
"spout",-1,"Evan","the knot tightened","b6dc74e7-1b35-4025-ae00-7056ba26a2b5","51","female",12198,3
"articulate",-1,"Harper","the room darkened","b6dc74e7-1b35-4025-ae00-7056ba26a2b5","51","female",8895,4
"advise",-1,"Dylan","the balloon popped","b6dc74e7-1b35-4025-ae00-7056ba26a2b5","51","female",5191,5
"fabricate",1,"Jamie","the bolt loosened","b6dc74e7-1b35-4025-ae00-7056ba26a2b5","51","female",7023,7
"emphasize",1,"Morgan","the paper burned","b6dc74e7-1b35-4025-ae00-7056ba26a2b5","51","female",5311,9
"denounce",1,"Reese","the factory closed","b6dc74e7-1b35-4025-ae00-7056ba26a2b5","51","female",6999,10
"praise",1,"Charlie","the gate opened","b6dc74e7-1b35-4025-ae00-7056ba26a2b5","51","female",4575,11
"quarrel",1,"Blake","the computer restarted","b6dc74e7-1b35-4025-ae00-7056ba26a2b5","51","female",4679,12
"recap",1,"Jordan","the sauce thickened","b6dc74e7-1b35-4025-ae00-7056ba26a2b5","51","female",5119,13
"yell",1,"Frankie","the airbag deployed","b6dc74e7-1b35-4025-ae00-7056ba26a2b5","51","female",4792,14
"explain",1,"Stevie","the egg cracked","b6dc74e7-1b35-4025-ae00-7056ba26a2b5","51","female",3527,15
"warrant",-1,"Jordan","the gate opened","0f04c0d4-0433-435d-81b6-666043aa6188","42","female",7558,3
"emphasize",-0.02,"Stevie","the knot tightened","0f04c0d4-0433-435d-81b6-666043aa6188","42","female",6390,4
"uphold",-0.08,"Dylan","the egg cracked","0f04c0d4-0433-435d-81b6-666043aa6188","42","female",5142,7
"bellow",-0.02,"Charlie","the airbag deployed","0f04c0d4-0433-435d-81b6-666043aa6188","42","female",4711,8
"publicize",1,"Morgan","the balloon popped","0f04c0d4-0433-435d-81b6-666043aa6188","42","female",6996,9
"fake",0.16,"Harper","the room darkened","0f04c0d4-0433-435d-81b6-666043aa6188","42","female",3523,10
"scoff",0.0600000000000001,"Blake","the sauce thickened","0f04c0d4-0433-435d-81b6-666043aa6188","42","female",4221,11
"specify",0.22,"Evan","the paper burned","0f04c0d4-0433-435d-81b6-666043aa6188","42","female",5442,12
"maintain",1,"Reese","the factory closed","0f04c0d4-0433-435d-81b6-666043aa6188","42","female",3255,13
"boast",0.64,"Jamie","the bolt loosened","0f04c0d4-0433-435d-81b6-666043aa6188","42","female",5358,14
"reaffirm",0.5,"Frankie","the computer restarted","0f04c0d4-0433-435d-81b6-666043aa6188","42","female",3479,15
"remark",1,"Jordan","the factory closed","bab4817a-09c8-4253-989e-eefc7d2209bf","25","male",3778,3
"gloat",1,"Blake","the computer restarted","bab4817a-09c8-4253-989e-eefc7d2209bf","25","male",3039,4
"share",1,"Stevie","the airbag deployed","bab4817a-09c8-4253-989e-eefc7d2209bf","25","male",4329,5
"dispute",0.78,"Dylan","the room darkened","bab4817a-09c8-4253-989e-eefc7d2209bf","25","male",4538,7
"confirm",-0.22,"Charlie","the bolt loosened","bab4817a-09c8-4253-989e-eefc7d2209bf","25","male",4689,9
"communicate",0.92,"Jamie","the egg cracked","bab4817a-09c8-4253-989e-eefc7d2209bf","25","male",4080,10
"comment",1,"Evan","the gate opened","bab4817a-09c8-4253-989e-eefc7d2209bf","25","male",5340,11
"record",1,"Reese","the paper burned","bab4817a-09c8-4253-989e-eefc7d2209bf","25","male",12883,12
"blog",0.52,"Morgan","the knot tightened","bab4817a-09c8-4253-989e-eefc7d2209bf","25","male",3745,13
"warn",0.76,"Frankie","the balloon popped","bab4817a-09c8-4253-989e-eefc7d2209bf","25","male",3670,14
"submit",0.56,"Harper","the sauce thickened","bab4817a-09c8-4253-989e-eefc7d2209bf","25","male",10691,15
"convey",1,"Charlie","the knot tightened","1c7b4f5a-482b-4a3a-a483-bd8098c76b6e","41","male",12388,4
"guarantee",1,"Jamie","the egg cracked","1c7b4f5a-482b-4a3a-a483-bd8098c76b6e","41","male",7543,5
"mark",1,"Evan","the room darkened","1c7b4f5a-482b-4a3a-a483-bd8098c76b6e","41","male",5277,6
"publicize",1,"Stevie","the bolt loosened","1c7b4f5a-482b-4a3a-a483-bd8098c76b6e","41","male",4766,7
"reiterate",1,"Morgan","the sauce thickened","1c7b4f5a-482b-4a3a-a483-bd8098c76b6e","41","male",5685,8
"insinuate",1,"Jordan","the balloon popped","1c7b4f5a-482b-4a3a-a483-bd8098c76b6e","41","male",4693,9
"bellow",1,"Dylan","the computer restarted","1c7b4f5a-482b-4a3a-a483-bd8098c76b6e","41","male",7294,10
"emphasize",1,"Frankie","the paper burned","1c7b4f5a-482b-4a3a-a483-bd8098c76b6e","41","male",4078,11
"report",1,"Reese","the airbag deployed","1c7b4f5a-482b-4a3a-a483-bd8098c76b6e","41","male",3774,12
"narrate",1,"Harper","the factory closed","1c7b4f5a-482b-4a3a-a483-bd8098c76b6e","41","male",4709,13
"stipulate",1,"Blake","the gate opened","1c7b4f5a-482b-4a3a-a483-bd8098c76b6e","41","male",3981,14
"fake",1,"Stevie","the bolt loosened","a29115e0-66e8-47eb-84fa-d09e32b8a709","78","male",13993,3
"depict",-0.0600000000000001,"Jordan","the egg cracked","a29115e0-66e8-47eb-84fa-d09e32b8a709","78","male",18571,5
"summarize",0,"Charlie","the airbag deployed","a29115e0-66e8-47eb-84fa-d09e32b8a709","78","male",15696,6
"emphasize",1,"Reese","the sauce thickened","a29115e0-66e8-47eb-84fa-d09e32b8a709","78","male",16059,7
"add",0,"Frankie","the gate opened","a29115e0-66e8-47eb-84fa-d09e32b8a709","78","male",5048,8
"email",0,"Dylan","the computer restarted","a29115e0-66e8-47eb-84fa-d09e32b8a709","78","male",10836,9
"reject",0,"Blake","the room darkened","a29115e0-66e8-47eb-84fa-d09e32b8a709","78","male",8018,10
"exhibit",0,"Evan","the factory closed","a29115e0-66e8-47eb-84fa-d09e32b8a709","78","male",5827,12
"prove",0,"Morgan","the knot tightened","a29115e0-66e8-47eb-84fa-d09e32b8a709","78","male",6306,13
"proclaim",0,"Jamie","the balloon popped","a29115e0-66e8-47eb-84fa-d09e32b8a709","78","male",3448,14
"broadcast",0.02,"Harper","the paper burned","a29115e0-66e8-47eb-84fa-d09e32b8a709","78","male",3394,15
"add",1,"Frankie","the computer restarted","bb47fd15-8cbc-48e1-9bc4-86f46e388dce","33","male",6630,3
"murmur",0.42,"Reese","the paper burned","bb47fd15-8cbc-48e1-9bc4-86f46e388dce","33","male",10381,4
"whisper",0.26,"Morgan","the knot tightened","bb47fd15-8cbc-48e1-9bc4-86f46e388dce","33","male",8181,5
"disclose",0.84,"Harper","the gate opened","bb47fd15-8cbc-48e1-9bc4-86f46e388dce","33","male",4382,6
"dismiss",0.72,"Blake","the factory closed","bb47fd15-8cbc-48e1-9bc4-86f46e388dce","33","male",9413,7
"whine",-0.36,"Dylan","the room darkened","bb47fd15-8cbc-48e1-9bc4-86f46e388dce","33","male",8820,10
"weep",-0.64,"Stevie","the airbag deployed","bb47fd15-8cbc-48e1-9bc4-86f46e388dce","33","male",6629,11
"gasp",-0.42,"Evan","the egg cracked","bb47fd15-8cbc-48e1-9bc4-86f46e388dce","33","male",9448,12
"reiterate",0.6,"Charlie","the bolt loosened","bb47fd15-8cbc-48e1-9bc4-86f46e388dce","33","male",4181,13
"circulate",0.7,"Jordan","the balloon popped","bb47fd15-8cbc-48e1-9bc4-86f46e388dce","33","male",83584,14
"boast",1,"Jamie","the sauce thickened","bb47fd15-8cbc-48e1-9bc4-86f46e388dce","33","male",4163,15
"answer",-1,"Stevie","the gate opened","9bf08331-95a2-4867-85ae-6b2fa5489732","73","female",23061,4
"scream",-1,"Jamie","the factory closed","9bf08331-95a2-4867-85ae-6b2fa5489732","73","female",25886,5
"utter",-1,"Jordan","the knot tightened","9bf08331-95a2-4867-85ae-6b2fa5489732","73","female",13487,6
"squeal",-1,"Dylan","the airbag deployed","9bf08331-95a2-4867-85ae-6b2fa5489732","73","female",13806,7
"sigh",0.98,"Harper","the room darkened","9bf08331-95a2-4867-85ae-6b2fa5489732","73","female",16741,8
"sketch",-1,"Frankie","the bolt loosened","9bf08331-95a2-4867-85ae-6b2fa5489732","73","female",15928,9
"corroborate",-1,"Evan","the sauce thickened","9bf08331-95a2-4867-85ae-6b2fa5489732","73","female",16546,10
"showcase",-1,"Reese","the paper burned","9bf08331-95a2-4867-85ae-6b2fa5489732","73","female",13934,11
"fess up",1,"Blake","the balloon popped","9bf08331-95a2-4867-85ae-6b2fa5489732","73","female",10907,12
"preach",-1,"Charlie","the egg cracked","9bf08331-95a2-4867-85ae-6b2fa5489732","73","female",34921,13
"share",1,"Morgan","the computer restarted","9bf08331-95a2-4867-85ae-6b2fa5489732","73","female",9573,14
"testify",-0.86,"Morgan","the airbag deployed","c926b3c1-14bb-42fb-9327-3b1dd2a83fb5","51","female",13696,3
"insist",0,"Reese","the balloon popped","c926b3c1-14bb-42fb-9327-3b1dd2a83fb5","51","female",13756,4
"admit",0.02,"Blake","the egg cracked","c926b3c1-14bb-42fb-9327-3b1dd2a83fb5","51","female",12629,5
"babble",-0.08,"Frankie","the bolt loosened","c926b3c1-14bb-42fb-9327-3b1dd2a83fb5","51","female",10787,6
"share",0,"Evan","the gate opened","c926b3c1-14bb-42fb-9327-3b1dd2a83fb5","51","female",5137,7
"preach",0,"Jamie","the room darkened","c926b3c1-14bb-42fb-9327-3b1dd2a83fb5","51","female",6221,8
"howl",0,"Stevie","the computer restarted","c926b3c1-14bb-42fb-9327-3b1dd2a83fb5","51","female",4076,9
"articulate",0.02,"Jordan","the factory closed","c926b3c1-14bb-42fb-9327-3b1dd2a83fb5","51","female",5530,10
"reply",0.02,"Dylan","the knot tightened","c926b3c1-14bb-42fb-9327-3b1dd2a83fb5","51","female",7179,11
"squeal",0,"Charlie","the paper burned","c926b3c1-14bb-42fb-9327-3b1dd2a83fb5","51","female",5223,12
"advertise",0,"Harper","the sauce thickened","c926b3c1-14bb-42fb-9327-3b1dd2a83fb5","51","female",5911,15
"allege",-0.6,"Blake","the paper burned","eaf0f01c-6e59-4ac4-b3eb-b8ee316e20d9","33","female",8395,3
"deny",0.92,"Dylan","the knot tightened","eaf0f01c-6e59-4ac4-b3eb-b8ee316e20d9","33","female",4855,5
"squeal",0.88,"Evan","the egg cracked","eaf0f01c-6e59-4ac4-b3eb-b8ee316e20d9","33","female",5559,6
"tweet",1,"Jordan","the computer restarted","eaf0f01c-6e59-4ac4-b3eb-b8ee316e20d9","33","female",3817,7
"bitch",1,"Jamie","the factory closed","eaf0f01c-6e59-4ac4-b3eb-b8ee316e20d9","33","female",4079,8
"grumble",1,"Morgan","the gate opened","eaf0f01c-6e59-4ac4-b3eb-b8ee316e20d9","33","female",2958,9
"declare",0.02,"Charlie","the airbag deployed","eaf0f01c-6e59-4ac4-b3eb-b8ee316e20d9","33","female",5620,10
"snitch",0.6,"Frankie","the sauce thickened","eaf0f01c-6e59-4ac4-b3eb-b8ee316e20d9","33","female",4167,11
"fax",1,"Harper","the balloon popped","eaf0f01c-6e59-4ac4-b3eb-b8ee316e20d9","33","female",4364,12
"show",1,"Reese","the room darkened","eaf0f01c-6e59-4ac4-b3eb-b8ee316e20d9","33","female",3713,14
"scream",1,"Stevie","the bolt loosened","eaf0f01c-6e59-4ac4-b3eb-b8ee316e20d9","33","female",2882,15
"communicate",1,"Frankie","the gate opened","d89f107f-33a3-49d8-8a7f-f87efd251823","48","female",10498,3
"confide",1,"Blake","the paper burned","d89f107f-33a3-49d8-8a7f-f87efd251823","48","female",9193,4
"articulate",1,"Stevie","the egg cracked","d89f107f-33a3-49d8-8a7f-f87efd251823","48","female",6257,5
"chant",1,"Evan","the factory closed","d89f107f-33a3-49d8-8a7f-f87efd251823","48","female",9646,7
"lie",1,"Jordan","the room darkened","d89f107f-33a3-49d8-8a7f-f87efd251823","48","female",9857,8
"expose",1,"Jamie","the balloon popped","d89f107f-33a3-49d8-8a7f-f87efd251823","48","female",5982,10
"radio",1,"Dylan","the airbag deployed","d89f107f-33a3-49d8-8a7f-f87efd251823","48","female",5844,11
"babble",1,"Harper","the bolt loosened","d89f107f-33a3-49d8-8a7f-f87efd251823","48","female",5828,12
"voice",1,"Charlie","the computer restarted","d89f107f-33a3-49d8-8a7f-f87efd251823","48","female",4809,13
"log",1,"Reese","the knot tightened","d89f107f-33a3-49d8-8a7f-f87efd251823","48","female",5625,14
"gab",1,"Morgan","the sauce thickened","d89f107f-33a3-49d8-8a7f-f87efd251823","48","female",7244,15
"signal",-1,"Frankie","the egg cracked","842f5006-7830-4aa7-a25d-545b24b2b96d","29","female",10926,3
"whisper",-1,"Jordan","the room darkened","842f5006-7830-4aa7-a25d-545b24b2b96d","29","female",8209,4
"exhibit",-1,"Charlie","the paper burned","842f5006-7830-4aa7-a25d-545b24b2b96d","29","female",5056,6
"reveal",-1,"Dylan","the airbag deployed","842f5006-7830-4aa7-a25d-545b24b2b96d","29","female",6474,7
"cry",-1,"Harper","the bolt loosened","842f5006-7830-4aa7-a25d-545b24b2b96d","29","female",13514,8
"prove",-1,"Reese","the sauce thickened","842f5006-7830-4aa7-a25d-545b24b2b96d","29","female",4899,9
"promise",-1,"Morgan","the knot tightened","842f5006-7830-4aa7-a25d-545b24b2b96d","29","female",5825,10
"maintain",-1,"Jamie","the gate opened","842f5006-7830-4aa7-a25d-545b24b2b96d","29","female",5659,11
"summarize",-1,"Stevie","the balloon popped","842f5006-7830-4aa7-a25d-545b24b2b96d","29","female",2886,12
"charge",-1,"Evan","the computer restarted","842f5006-7830-4aa7-a25d-545b24b2b96d","29","female",5739,13
"address",-0.04,"Blake","the factory closed","842f5006-7830-4aa7-a25d-545b24b2b96d","29","female",7751,14
"mark",-1,"Jordan","the sauce thickened","5e607308-98ee-4d0e-a53f-8ab93250ee62","37","female",6862,4
"contest",-1,"Stevie","the paper burned","5e607308-98ee-4d0e-a53f-8ab93250ee62","37","female",6214,5
"debate",1,"Frankie","the egg cracked","5e607308-98ee-4d0e-a53f-8ab93250ee62","37","female",5564,6
"underline",-1,"Evan","the gate opened","5e607308-98ee-4d0e-a53f-8ab93250ee62","37","female",4272,7
"warrant",-1,"Charlie","the airbag deployed","5e607308-98ee-4d0e-a53f-8ab93250ee62","37","female",6452,8
"mutter",1,"Jamie","the knot tightened","5e607308-98ee-4d0e-a53f-8ab93250ee62","37","female",3832,10
"complain",1,"Dylan","the factory closed","5e607308-98ee-4d0e-a53f-8ab93250ee62","37","female",3013,11
"suggest",-1,"Blake","the computer restarted","5e607308-98ee-4d0e-a53f-8ab93250ee62","37","female",3980,12
"show",-0.98,"Harper","the bolt loosened","5e607308-98ee-4d0e-a53f-8ab93250ee62","37","female",6376,13
"swear",1,"Morgan","the room darkened","5e607308-98ee-4d0e-a53f-8ab93250ee62","37","female",6647,14
"know",-1,"Reese","the balloon popped","5e607308-98ee-4d0e-a53f-8ab93250ee62","37","female",4102,15
"prove",-1,"Stevie","the gate opened","dbe5d2fd-dc4d-43b2-83ed-03935192ab47","25","non-binary",12655,4
"reaffirm",-0.02,"Blake","the factory closed","dbe5d2fd-dc4d-43b2-83ed-03935192ab47","25","non-binary",11915,5
"retract",1,"Jamie","the paper burned","dbe5d2fd-dc4d-43b2-83ed-03935192ab47","25","non-binary",33641,6
"stipulate",-0.04,"Evan","the airbag deployed","dbe5d2fd-dc4d-43b2-83ed-03935192ab47","25","non-binary",31940,7
"bellow",-0.04,"Dylan","the sauce thickened","dbe5d2fd-dc4d-43b2-83ed-03935192ab47","25","non-binary",31867,8
"email",-0.02,"Harper","the egg cracked","dbe5d2fd-dc4d-43b2-83ed-03935192ab47","25","non-binary",10459,9
"squeal",0,"Jordan","the balloon popped","dbe5d2fd-dc4d-43b2-83ed-03935192ab47","25","non-binary",4323,10
"elaborate",1,"Charlie","the computer restarted","dbe5d2fd-dc4d-43b2-83ed-03935192ab47","25","non-binary",24710,11
"fake",1,"Frankie","the knot tightened","dbe5d2fd-dc4d-43b2-83ed-03935192ab47","25","non-binary",16196,12
"joke",1,"Morgan","the bolt loosened","dbe5d2fd-dc4d-43b2-83ed-03935192ab47","25","non-binary",11749,14
"corroborate",1,"Reese","the room darkened","dbe5d2fd-dc4d-43b2-83ed-03935192ab47","25","non-binary",4749,15
"shout",0.98,"Reese","the factory closed","1252ec3d-b1a9-4e7d-94fb-6427049048a0","32","female",9902,5
"indicate",0,"Jordan","the room darkened","1252ec3d-b1a9-4e7d-94fb-6427049048a0","32","female",9698,6
"log",-1,"Dylan","the egg cracked","1252ec3d-b1a9-4e7d-94fb-6427049048a0","32","female",5135,7
"elaborate",-1,"Charlie","the gate opened","1252ec3d-b1a9-4e7d-94fb-6427049048a0","32","female",6460,8
"summarize",-0.98,"Evan","the bolt loosened","1252ec3d-b1a9-4e7d-94fb-6427049048a0","32","female",7014,9
"publicize",-1,"Stevie","the knot tightened","1252ec3d-b1a9-4e7d-94fb-6427049048a0","32","female",6376,10
"mark",-0.98,"Jamie","the computer restarted","1252ec3d-b1a9-4e7d-94fb-6427049048a0","32","female",6898,11
"prove",-1,"Harper","the paper burned","1252ec3d-b1a9-4e7d-94fb-6427049048a0","32","female",5820,12
"emphasize",-1,"Morgan","the balloon popped","1252ec3d-b1a9-4e7d-94fb-6427049048a0","32","female",4389,13
"affirm",-1,"Frankie","the sauce thickened","1252ec3d-b1a9-4e7d-94fb-6427049048a0","32","female",27664,14
"charge",-0.96,"Blake","the airbag deployed","1252ec3d-b1a9-4e7d-94fb-6427049048a0","32","female",26414,15
"uncover",1,"Charlie","the airbag deployed","2fbabc07-a3c0-41ce-a21a-57d7b268baad","53","male",8152,3
"certify",0,"Morgan","the room darkened","2fbabc07-a3c0-41ce-a21a-57d7b268baad","53","male",12608,4
"sob",1,"Frankie","the bolt loosened","2fbabc07-a3c0-41ce-a21a-57d7b268baad","53","male",6113,6
"contest",1,"Dylan","the balloon popped","2fbabc07-a3c0-41ce-a21a-57d7b268baad","53","male",8834,7
"reassert",-0.02,"Reese","the sauce thickened","2fbabc07-a3c0-41ce-a21a-57d7b268baad","53","male",8333,8
"cheer",1,"Stevie","the egg cracked","2fbabc07-a3c0-41ce-a21a-57d7b268baad","53","male",6607,10
"dispute",1,"Blake","the paper burned","2fbabc07-a3c0-41ce-a21a-57d7b268baad","53","male",4688,11
"squeal",1,"Jordan","the factory closed","2fbabc07-a3c0-41ce-a21a-57d7b268baad","53","male",5061,12
"quarrel",1,"Harper","the computer restarted","2fbabc07-a3c0-41ce-a21a-57d7b268baad","53","male",4639,13
"fess up",1,"Jamie","the knot tightened","2fbabc07-a3c0-41ce-a21a-57d7b268baad","53","male",4389,14
"say",1,"Evan","the gate opened","2fbabc07-a3c0-41ce-a21a-57d7b268baad","53","male",5028,15
"blog",-1,"Evan","the sauce thickened","f1abf172-6dbc-4a0c-8151-f71d781e4212","51","female",8192,3
"express",0,"Stevie","the bolt loosened","f1abf172-6dbc-4a0c-8151-f71d781e4212","51","female",101358,4
"gush",0,"Morgan","the airbag deployed","f1abf172-6dbc-4a0c-8151-f71d781e4212","51","female",3048,5
"chatter",0,"Harper","the factory closed","f1abf172-6dbc-4a0c-8151-f71d781e4212","51","female",3910,6
"admit",0,"Jordan","the balloon popped","f1abf172-6dbc-4a0c-8151-f71d781e4212","51","female",3119,7
"mumble",0,"Jamie","the egg cracked","f1abf172-6dbc-4a0c-8151-f71d781e4212","51","female",4607,9
"whimper",0,"Charlie","the paper burned","f1abf172-6dbc-4a0c-8151-f71d781e4212","51","female",3319,10
"indicate",0,"Blake","the computer restarted","f1abf172-6dbc-4a0c-8151-f71d781e4212","51","female",4639,11
"gab",0,"Frankie","the room darkened","f1abf172-6dbc-4a0c-8151-f71d781e4212","51","female",4623,13
"whine",1,"Dylan","the gate opened","f1abf172-6dbc-4a0c-8151-f71d781e4212","51","female",7735,14
"spout",1,"Reese","the knot tightened","f1abf172-6dbc-4a0c-8151-f71d781e4212","51","female",5023,15
"know",0.84,"Reese","the balloon popped","b3bf26c2-1403-4323-8458-43e6655b53ba","40","male",10854,3
"share",1,"Jamie","the bolt loosened","b3bf26c2-1403-4323-8458-43e6655b53ba","40","male",10947,4
"gasp",0.96,"Evan","the factory closed","b3bf26c2-1403-4323-8458-43e6655b53ba","40","male",7855,5
"phone",0.84,"Frankie","the airbag deployed","b3bf26c2-1403-4323-8458-43e6655b53ba","40","male",9382,6
"denounce",0.88,"Morgan","the room darkened","b3bf26c2-1403-4323-8458-43e6655b53ba","40","male",5324,7
"howl",1,"Dylan","the gate opened","b3bf26c2-1403-4323-8458-43e6655b53ba","40","male",7313,8
"say",1,"Jordan","the paper burned","b3bf26c2-1403-4323-8458-43e6655b53ba","40","male",4416,9
"announce",1,"Blake","the egg cracked","b3bf26c2-1403-4323-8458-43e6655b53ba","40","male",7968,10
"mention",0.18,"Stevie","the computer restarted","b3bf26c2-1403-4323-8458-43e6655b53ba","40","male",8340,11
"lie",0.92,"Charlie","the knot tightened","b3bf26c2-1403-4323-8458-43e6655b53ba","40","male",6841,12
"describe",-0.4,"Harper","the sauce thickened","b3bf26c2-1403-4323-8458-43e6655b53ba","40","male",26962,15
"sob",1,"Dylan","the bolt loosened","c41590de-b49e-4f81-ac3d-8505a69125bc","69","male",23221,3
"disclose",1,"Harper","the airbag deployed","c41590de-b49e-4f81-ac3d-8505a69125bc","69","male",9541,4
"dispute",1,"Evan","the computer restarted","c41590de-b49e-4f81-ac3d-8505a69125bc","69","male",9638,6
"whisper",1,"Stevie","the room darkened","c41590de-b49e-4f81-ac3d-8505a69125bc","69","male",11296,7
"write",1,"Jordan","the gate opened","c41590de-b49e-4f81-ac3d-8505a69125bc","69","male",8501,8
"divulge",1,"Jamie","the egg cracked","c41590de-b49e-4f81-ac3d-8505a69125bc","69","male",4622,10
"stress",1,"Reese","the knot tightened","c41590de-b49e-4f81-ac3d-8505a69125bc","69","male",5263,11
"report",1,"Morgan","the balloon popped","c41590de-b49e-4f81-ac3d-8505a69125bc","69","male",5422,12
"denounce",1,"Frankie","the factory closed","c41590de-b49e-4f81-ac3d-8505a69125bc","69","male",6463,13
"elaborate",1,"Blake","the sauce thickened","c41590de-b49e-4f81-ac3d-8505a69125bc","69","male",5038,14
"bitch",1,"Charlie","the paper burned","c41590de-b49e-4f81-ac3d-8505a69125bc","69","male",5919,15
"log",1,"Jordan","the sauce thickened","85694ff7-1418-4c9f-90ae-e9a66cf34327","33","female",9975,3
"summarize",1,"Charlie","the balloon popped","85694ff7-1418-4c9f-90ae-e9a66cf34327","33","female",12470,4
"recap",0.4,"Dylan","the computer restarted","85694ff7-1418-4c9f-90ae-e9a66cf34327","33","female",11935,5
"narrate",0.16,"Frankie","the knot tightened","85694ff7-1418-4c9f-90ae-e9a66cf34327","33","female",9335,6
"affirm",-0.36,"Morgan","the paper burned","85694ff7-1418-4c9f-90ae-e9a66cf34327","33","female",7838,7
"scoff",1,"Jamie","the room darkened","85694ff7-1418-4c9f-90ae-e9a66cf34327","33","female",12583,8
"utter",-0.52,"Evan","the gate opened","85694ff7-1418-4c9f-90ae-e9a66cf34327","33","female",10894,10
"whine",0.78,"Reese","the airbag deployed","85694ff7-1418-4c9f-90ae-e9a66cf34327","33","female",13215,12
"moan",0.86,"Stevie","the egg cracked","85694ff7-1418-4c9f-90ae-e9a66cf34327","33","female",8655,13
"cheer",-0.34,"Blake","the bolt loosened","85694ff7-1418-4c9f-90ae-e9a66cf34327","33","female",6199,14
"swear",0.22,"Harper","the factory closed","85694ff7-1418-4c9f-90ae-e9a66cf34327","33","female",10447,15
"divulge",1,"Jamie","the gate opened","17f7074e-1982-422d-98b9-57670f16a418","42","female",11150,3
"relate",1,"Reese","the knot tightened","17f7074e-1982-422d-98b9-57670f16a418","42","female",8460,4
"posit",0,"Dylan","the balloon popped","17f7074e-1982-422d-98b9-57670f16a418","42","female",54171,5
"retort",1,"Blake","the computer restarted","17f7074e-1982-422d-98b9-57670f16a418","42","female",6746,6
"attest",0.02,"Harper","the airbag deployed","17f7074e-1982-422d-98b9-57670f16a418","42","female",25833,7
"fax",1,"Stevie","the egg cracked","17f7074e-1982-422d-98b9-57670f16a418","42","female",9883,8
"warrant",0,"Morgan","the paper burned","17f7074e-1982-422d-98b9-57670f16a418","42","female",39580,10
"wager",0.02,"Charlie","the sauce thickened","17f7074e-1982-422d-98b9-57670f16a418","42","female",20934,11
"say",0,"Jordan","the bolt loosened","17f7074e-1982-422d-98b9-57670f16a418","42","female",8830,12
"rave",0,"Frankie","the factory closed","17f7074e-1982-422d-98b9-57670f16a418","42","female",26049,13
"email",0,"Evan","the room darkened","17f7074e-1982-422d-98b9-57670f16a418","42","female",11359,15
"deny",1,"Jamie","the factory closed","3e8c599c-dac6-4bb6-a484-b5af9e1428cb","65","female",6876,3
"add",1,"Morgan","the sauce thickened","3e8c599c-dac6-4bb6-a484-b5af9e1428cb","65","female",6280,4
"type",1,"Evan","the computer restarted","3e8c599c-dac6-4bb6-a484-b5af9e1428cb","65","female",5168,5
"stress",1,"Frankie","the bolt loosened","3e8c599c-dac6-4bb6-a484-b5af9e1428cb","65","female",3983,6
"joke",1,"Blake","the knot tightened","3e8c599c-dac6-4bb6-a484-b5af9e1428cb","65","female",8345,7
"suggest",1,"Reese","the balloon popped","3e8c599c-dac6-4bb6-a484-b5af9e1428cb","65","female",4946,8
"chant",1,"Dylan","the airbag deployed","3e8c599c-dac6-4bb6-a484-b5af9e1428cb","65","female",14211,9
"lie",1,"Charlie","the gate opened","3e8c599c-dac6-4bb6-a484-b5af9e1428cb","65","female",4136,12
"specify",1,"Harper","the egg cracked","3e8c599c-dac6-4bb6-a484-b5af9e1428cb","65","female",3792,13
"promise",1,"Stevie","the paper burned","3e8c599c-dac6-4bb6-a484-b5af9e1428cb","65","female",4677,14
"retort",1,"Jordan","the room darkened","3e8c599c-dac6-4bb6-a484-b5af9e1428cb","65","female",4436,15
"guarantee",-0.44,"Evan","the room darkened","01abb0e5-45f5-4bbd-9298-901a92d5cf71","39","male",15512,3
"quip",1,"Frankie","the factory closed","01abb0e5-45f5-4bbd-9298-901a92d5cf71","39","male",9027,4
"fess up",1,"Morgan","the bolt loosened","01abb0e5-45f5-4bbd-9298-901a92d5cf71","39","male",8203,5
"clarify",-0.66,"Charlie","the sauce thickened","01abb0e5-45f5-4bbd-9298-901a92d5cf71","39","male",24324,6
"confess",0.02,"Reese","the balloon popped","01abb0e5-45f5-4bbd-9298-901a92d5cf71","39","male",9466,7
"sing",-0.12,"Jamie","the egg cracked","01abb0e5-45f5-4bbd-9298-901a92d5cf71","39","male",5652,10
"pout",1,"Harper","the computer restarted","01abb0e5-45f5-4bbd-9298-901a92d5cf71","39","male",5669,11
"retract",0.68,"Jordan","the knot tightened","01abb0e5-45f5-4bbd-9298-901a92d5cf71","39","male",9499,12
"concede",0,"Dylan","the paper burned","01abb0e5-45f5-4bbd-9298-901a92d5cf71","39","male",4221,13
"warrant",0.36,"Blake","the airbag deployed","01abb0e5-45f5-4bbd-9298-901a92d5cf71","39","male",6045,14
"flaunt",1,"Stevie","the gate opened","01abb0e5-45f5-4bbd-9298-901a92d5cf71","39","male",4237,15
"mumble",-1,"Harper","the bolt loosened","ef3f2f80-1575-4d59-9e85-2031e0a51a78","45","male",11135,3
"signify",-1,"Charlie","the factory closed","ef3f2f80-1575-4d59-9e85-2031e0a51a78","45","male",3865,4
"share",1,"Morgan","the sauce thickened","ef3f2f80-1575-4d59-9e85-2031e0a51a78","45","male",5027,5
"apologize",1,"Evan","the paper burned","ef3f2f80-1575-4d59-9e85-2031e0a51a78","45","male",4635,6
"write",-1,"Blake","the knot tightened","ef3f2f80-1575-4d59-9e85-2031e0a51a78","45","male",8362,7
"confess",1,"Reese","the gate opened","ef3f2f80-1575-4d59-9e85-2031e0a51a78","45","male",3343,8
"joke",-1,"Jordan","the computer restarted","ef3f2f80-1575-4d59-9e85-2031e0a51a78","45","male",7122,10
"summarize",1,"Dylan","the egg cracked","ef3f2f80-1575-4d59-9e85-2031e0a51a78","45","male",16905,12
"sob",1,"Jamie","the airbag deployed","ef3f2f80-1575-4d59-9e85-2031e0a51a78","45","male",9695,13
"warn",1,"Stevie","the balloon popped","ef3f2f80-1575-4d59-9e85-2031e0a51a78","45","male",5489,14
"uphold",1,"Frankie","the room darkened","ef3f2f80-1575-4d59-9e85-2031e0a51a78","45","male",4362,15
"apologize",1,"Jamie","the room darkened","bf69db25-d684-4ef2-bc5c-1893be4cc070","35","female",8020,3
"underline",0.5,"Charlie","the paper burned","bf69db25-d684-4ef2-bc5c-1893be4cc070","35","female",8809,4
"charge",-0.68,"Harper","the bolt loosened","bf69db25-d684-4ef2-bc5c-1893be4cc070","35","female",6167,5
"scream",0.3,"Reese","the sauce thickened","bf69db25-d684-4ef2-bc5c-1893be4cc070","35","female",7129,7
"corroborate",-0.6,"Evan","the factory closed","bf69db25-d684-4ef2-bc5c-1893be4cc070","35","female",4235,8
"suggest",-0.64,"Morgan","the airbag deployed","bf69db25-d684-4ef2-bc5c-1893be4cc070","35","female",4509,9
"express",-0.38,"Blake","the gate opened","bf69db25-d684-4ef2-bc5c-1893be4cc070","35","female",4801,10
"publicize",0.36,"Dylan","the computer restarted","bf69db25-d684-4ef2-bc5c-1893be4cc070","35","female",5607,11
"blog",0.76,"Stevie","the egg cracked","bf69db25-d684-4ef2-bc5c-1893be4cc070","35","female",3755,12
"affirm",-0.58,"Jordan","the balloon popped","bf69db25-d684-4ef2-bc5c-1893be4cc070","35","female",4301,13
"tweet",0.4,"Frankie","the knot tightened","bf69db25-d684-4ef2-bc5c-1893be4cc070","35","female",5411,14
"contest",0.68,"Reese","the egg cracked","6ce8e609-0364-4f2b-85f7-dcf249416cf4","53","male",32698,3
"proclaim",0.66,"Jamie","the bolt loosened","6ce8e609-0364-4f2b-85f7-dcf249416cf4","53","male",10898,4
"mark",-0.72,"Frankie","the factory closed","6ce8e609-0364-4f2b-85f7-dcf249416cf4","53","male",40844,5
"communicate",-0.72,"Morgan","the balloon popped","6ce8e609-0364-4f2b-85f7-dcf249416cf4","53","male",14989,7
"circulate",-0.72,"Dylan","the knot tightened","6ce8e609-0364-4f2b-85f7-dcf249416cf4","53","male",14277,8
"repeat",-0.68,"Evan","the room darkened","6ce8e609-0364-4f2b-85f7-dcf249416cf4","53","male",18921,9
"brag",-0.7,"Stevie","the sauce thickened","6ce8e609-0364-4f2b-85f7-dcf249416cf4","53","male",10845,10
"apologize",0.98,"Jordan","the airbag deployed","6ce8e609-0364-4f2b-85f7-dcf249416cf4","53","male",10813,12
"bitch",0.98,"Harper","the computer restarted","6ce8e609-0364-4f2b-85f7-dcf249416cf4","53","male",15493,13
"shout",0.46,"Charlie","the paper burned","6ce8e609-0364-4f2b-85f7-dcf249416cf4","53","male",34757,14
"rave",-0.68,"Blake","the gate opened","6ce8e609-0364-4f2b-85f7-dcf249416cf4","53","male",29242,15
"endorse",1,"Reese","the knot tightened","530bd899-aa97-4a83-9689-87e3204833ac","56","male",12564,3
"point out",1,"Harper","the sauce thickened","530bd899-aa97-4a83-9689-87e3204833ac","56","male",11954,4
"show",1,"Blake","the egg cracked","530bd899-aa97-4a83-9689-87e3204833ac","56","male",19404,5
"cry",1,"Evan","the factory closed","530bd899-aa97-4a83-9689-87e3204833ac","56","male",9767,7
"retort",1,"Jamie","the gate opened","530bd899-aa97-4a83-9689-87e3204833ac","56","male",14499,8
"shriek",1,"Dylan","the bolt loosened","530bd899-aa97-4a83-9689-87e3204833ac","56","male",7836,10
"sigh",1,"Frankie","the room darkened","530bd899-aa97-4a83-9689-87e3204833ac","56","male",5342,11
"howl",1,"Stevie","the airbag deployed","530bd899-aa97-4a83-9689-87e3204833ac","56","male",8388,12
"gloat",1,"Jordan","the paper burned","530bd899-aa97-4a83-9689-87e3204833ac","56","male",7446,13
"assert",1,"Charlie","the computer restarted","530bd899-aa97-4a83-9689-87e3204833ac","56","male",9057,14
"concede",1,"Morgan","the balloon popped","530bd899-aa97-4a83-9689-87e3204833ac","56","male",38518,15
"complain",1,"Stevie","the gate opened","c60487c6-a1b0-4d16-afc1-6bbd7e43aaf3","61","female",14944,4
"publicize",0.68,"Evan","the factory closed","c60487c6-a1b0-4d16-afc1-6bbd7e43aaf3","61","female",13590,5
"communicate",0.78,"Jamie","the balloon popped","c60487c6-a1b0-4d16-afc1-6bbd7e43aaf3","61","female",12859,7
"uphold",0.28,"Dylan","the paper burned","c60487c6-a1b0-4d16-afc1-6bbd7e43aaf3","61","female",19900,8
"deny",-0.08,"Blake","the egg cracked","c60487c6-a1b0-4d16-afc1-6bbd7e43aaf3","61","female",15811,9
"divulge",-0.1,"Reese","the computer restarted","c60487c6-a1b0-4d16-afc1-6bbd7e43aaf3","61","female",15313,10
"sing",-0.76,"Charlie","the airbag deployed","c60487c6-a1b0-4d16-afc1-6bbd7e43aaf3","61","female",21371,11
"warrant",-0.5,"Frankie","the room darkened","c60487c6-a1b0-4d16-afc1-6bbd7e43aaf3","61","female",10836,12
"establish",-0.66,"Jordan","the sauce thickened","c60487c6-a1b0-4d16-afc1-6bbd7e43aaf3","61","female",17663,13
"imply",-0.32,"Morgan","the knot tightened","c60487c6-a1b0-4d16-afc1-6bbd7e43aaf3","61","female",8459,14
"joke",-0.84,"Harper","the bolt loosened","c60487c6-a1b0-4d16-afc1-6bbd7e43aaf3","61","female",9268,15
"lecture",0,"Evan","the gate opened","9f52b732-0c2f-4d7f-83b5-242ac9a9eb66","46","female",7179,4
"shriek",0,"Reese","the balloon popped","9f52b732-0c2f-4d7f-83b5-242ac9a9eb66","46","female",6748,5
"murmur",0,"Dylan","the paper burned","9f52b732-0c2f-4d7f-83b5-242ac9a9eb66","46","female",3063,6
"guarantee",0,"Frankie","the egg cracked","9f52b732-0c2f-4d7f-83b5-242ac9a9eb66","46","female",4098,7
"babble",0,"Jordan","the airbag deployed","9f52b732-0c2f-4d7f-83b5-242ac9a9eb66","46","female",7430,8
"mark",0,"Charlie","the knot tightened","9f52b732-0c2f-4d7f-83b5-242ac9a9eb66","46","female",2631,9
"scribble",0,"Blake","the factory closed","9f52b732-0c2f-4d7f-83b5-242ac9a9eb66","46","female",3047,10
"fabricate",0.02,"Harper","the computer restarted","9f52b732-0c2f-4d7f-83b5-242ac9a9eb66","46","female",18532,11
"concede",0,"Jamie","the bolt loosened","9f52b732-0c2f-4d7f-83b5-242ac9a9eb66","46","female",3548,12
"whimper",0.0600000000000001,"Stevie","the room darkened","9f52b732-0c2f-4d7f-83b5-242ac9a9eb66","46","female",7181,13
"answer",0,"Morgan","the sauce thickened","9f52b732-0c2f-4d7f-83b5-242ac9a9eb66","46","female",3797,14
"lecture",-0.02,"Evan","the gate opened","01635669-5638-479c-a299-e93a5ff80576","66","male",9979,3
"underline",0,"Jordan","the paper burned","01635669-5638-479c-a299-e93a5ff80576","66","male",12698,4
"utter",0.02,"Reese","the bolt loosened","01635669-5638-479c-a299-e93a5ff80576","66","male",6366,5
"proclaim",0.04,"Jamie","the room darkened","01635669-5638-479c-a299-e93a5ff80576","66","male",6534,6
"radio",0.02,"Frankie","the egg cracked","01635669-5638-479c-a299-e93a5ff80576","66","male",5148,7
"reaffirm",0,"Stevie","the computer restarted","01635669-5638-479c-a299-e93a5ff80576","66","male",8732,10
"retract",0,"Morgan","the factory closed","01635669-5638-479c-a299-e93a5ff80576","66","male",7732,11
"restate",0.04,"Charlie","the balloon popped","01635669-5638-479c-a299-e93a5ff80576","66","male",5749,12
"uncover",0,"Blake","the airbag deployed","01635669-5638-479c-a299-e93a5ff80576","66","male",5600,13
"grunt",0.02,"Harper","the sauce thickened","01635669-5638-479c-a299-e93a5ff80576","66","male",5752,14
"dismiss",0,"Dylan","the knot tightened","01635669-5638-479c-a299-e93a5ff80576","66","male",5297,15
"display",1,"Dylan","the gate opened","bc66246a-8721-46cb-b63a-6583faca22aa","45","female",8037,3
"shriek",1,"Reese","the airbag deployed","bc66246a-8721-46cb-b63a-6583faca22aa","45","female",6530,4
"tease",0.88,"Morgan","the bolt loosened","bc66246a-8721-46cb-b63a-6583faca22aa","45","female",5824,5
"expose",0.8,"Stevie","the factory closed","bc66246a-8721-46cb-b63a-6583faca22aa","45","female",4415,6
"broadcast",0.84,"Frankie","the room darkened","bc66246a-8721-46cb-b63a-6583faca22aa","45","female",5510,7
"swear",0.6,"Jordan","the egg cracked","bc66246a-8721-46cb-b63a-6583faca22aa","45","female",4600,8
"quip",0.78,"Harper","the knot tightened","bc66246a-8721-46cb-b63a-6583faca22aa","45","female",7459,10
"divulge",0.44,"Jamie","the computer restarted","bc66246a-8721-46cb-b63a-6583faca22aa","45","female",5976,11
"disclose",0.8,"Blake","the paper burned","bc66246a-8721-46cb-b63a-6583faca22aa","45","female",3504,12
"exclaim",0.56,"Charlie","the balloon popped","bc66246a-8721-46cb-b63a-6583faca22aa","45","female",3886,13
"gab",0.38,"Evan","the sauce thickened","bc66246a-8721-46cb-b63a-6583faca22aa","45","female",5883,14
"respond",-0.8,"Reese","the factory closed","14b1fd8e-4fc5-4624-b066-ad5b51ac36a5","35","female",22789,3
"type",-0.2,"Evan","the room darkened","14b1fd8e-4fc5-4624-b066-ad5b51ac36a5","35","female",16463,4
"fabricate",0.6,"Jamie","the balloon popped","14b1fd8e-4fc5-4624-b066-ad5b51ac36a5","35","female",9468,5
"dismiss",0.56,"Morgan","the paper burned","14b1fd8e-4fc5-4624-b066-ad5b51ac36a5","35","female",10007,6
"utter",0.44,"Blake","the computer restarted","14b1fd8e-4fc5-4624-b066-ad5b51ac36a5","35","female",8848,7
"promise",-0.62,"Harper","the knot tightened","14b1fd8e-4fc5-4624-b066-ad5b51ac36a5","35","female",11544,8
"praise",-0.54,"Stevie","the bolt loosened","14b1fd8e-4fc5-4624-b066-ad5b51ac36a5","35","female",13852,9
"gloat",0.52,"Dylan","the egg cracked","14b1fd8e-4fc5-4624-b066-ad5b51ac36a5","35","female",9740,10
"certify",-0.22,"Charlie","the gate opened","14b1fd8e-4fc5-4624-b066-ad5b51ac36a5","35","female",12814,11
"signify",-0.22,"Jordan","the airbag deployed","14b1fd8e-4fc5-4624-b066-ad5b51ac36a5","35","female",9686,12
"write",-0.08,"Frankie","the sauce thickened","14b1fd8e-4fc5-4624-b066-ad5b51ac36a5","35","female",9719,13
"challenge",0.84,"Dylan","the computer restarted","fc07fd22-097a-48b1-bcab-9a508de55857","63","female",16274,3
"advise",-0.86,"Jamie","the airbag deployed","fc07fd22-097a-48b1-bcab-9a508de55857","63","female",9568,4
"promise",0.16,"Charlie","the paper burned","fc07fd22-097a-48b1-bcab-9a508de55857","63","female",9899,5
"certify",0.14,"Frankie","the knot tightened","fc07fd22-097a-48b1-bcab-9a508de55857","63","female",13459,6
"publish",-0.7,"Stevie","the balloon popped","fc07fd22-097a-48b1-bcab-9a508de55857","63","female",11985,7
"reject",0.54,"Evan","the gate opened","fc07fd22-097a-48b1-bcab-9a508de55857","63","female",9968,8
"advertise",-0.78,"Reese","the room darkened","fc07fd22-097a-48b1-bcab-9a508de55857","63","female",6249,9
"fax",-0.96,"Jordan","the bolt loosened","fc07fd22-097a-48b1-bcab-9a508de55857","63","female",9271,10
"reply",-0.42,"Morgan","the sauce thickened","fc07fd22-097a-48b1-bcab-9a508de55857","63","female",7425,13
"relate",-0.5,"Harper","the factory closed","fc07fd22-097a-48b1-bcab-9a508de55857","63","female",7502,14
"summarize",0.14,"Blake","the egg cracked","fc07fd22-097a-48b1-bcab-9a508de55857","63","female",6118,15
"squeal",1,"Dylan","the airbag deployed","e6fc79ef-ff5b-4b9d-bc61-a8ac36c93969","33","female",14538,3
"proclaim",0.38,"Morgan","the factory closed","e6fc79ef-ff5b-4b9d-bc61-a8ac36c93969","33","female",18884,4
"share",0.8,"Charlie","the bolt loosened","e6fc79ef-ff5b-4b9d-bc61-a8ac36c93969","33","female",8493,5
"showcase",1,"Jamie","the room darkened","e6fc79ef-ff5b-4b9d-bc61-a8ac36c93969","33","female",6821,6
"email",0.72,"Jordan","the balloon popped","e6fc79ef-ff5b-4b9d-bc61-a8ac36c93969","33","female",90581,7
"phone",0.38,"Frankie","the knot tightened","e6fc79ef-ff5b-4b9d-bc61-a8ac36c93969","33","female",8269,9
"cheer",0.46,"Reese","the gate opened","e6fc79ef-ff5b-4b9d-bc61-a8ac36c93969","33","female",6160,11
"rant",1,"Harper","the sauce thickened","e6fc79ef-ff5b-4b9d-bc61-a8ac36c93969","33","female",36471,12
"contend",0.48,"Evan","the paper burned","e6fc79ef-ff5b-4b9d-bc61-a8ac36c93969","33","female",9452,13
"endorse",-0.22,"Blake","the egg cracked","e6fc79ef-ff5b-4b9d-bc61-a8ac36c93969","33","female",11483,14
"broadcast",0.88,"Stevie","the computer restarted","e6fc79ef-ff5b-4b9d-bc61-a8ac36c93969","33","female",10814,15
"record",1,"Jordan","the balloon popped","169c02e5-0686-4641-9e9b-50dce24fd149","46","male",9850,3
"admit",1,"Dylan","the computer restarted","169c02e5-0686-4641-9e9b-50dce24fd149","46","male",7899,4
"warn",1,"Frankie","the factory closed","169c02e5-0686-4641-9e9b-50dce24fd149","46","male",6221,6
"confirm",1,"Evan","the knot tightened","169c02e5-0686-4641-9e9b-50dce24fd149","46","male",11400,7
"maintain",1,"Stevie","the gate opened","169c02e5-0686-4641-9e9b-50dce24fd149","46","male",11875,8
"exhibit",-1,"Morgan","the bolt loosened","169c02e5-0686-4641-9e9b-50dce24fd149","46","male",11982,9
"praise",1,"Charlie","the sauce thickened","169c02e5-0686-4641-9e9b-50dce24fd149","46","male",7267,10
"chatter",1,"Blake","the paper burned","169c02e5-0686-4641-9e9b-50dce24fd149","46","male",7721,11
"submit",-1,"Reese","the room darkened","169c02e5-0686-4641-9e9b-50dce24fd149","46","male",13471,12
"disclose",1,"Jamie","the egg cracked","169c02e5-0686-4641-9e9b-50dce24fd149","46","male",5821,13
"phone",1,"Harper","the airbag deployed","169c02e5-0686-4641-9e9b-50dce24fd149","46","male",8691,14
"bicker",0.8,"Evan","the knot tightened","fd634fdc-20a6-4dfd-96b4-f42154d82a0b","22","female",7266,3
"voice",0.32,"Charlie","the factory closed","fd634fdc-20a6-4dfd-96b4-f42154d82a0b","22","female",6444,4
"establish",0.28,"Jordan","the sauce thickened","fd634fdc-20a6-4dfd-96b4-f42154d82a0b","22","female",98823,5
"announce",0.24,"Frankie","the gate opened","fd634fdc-20a6-4dfd-96b4-f42154d82a0b","22","female",42741,6
"debate",0.76,"Dylan","the bolt loosened","fd634fdc-20a6-4dfd-96b4-f42154d82a0b","22","female",15649,7
"restate",0.74,"Stevie","the paper burned","fd634fdc-20a6-4dfd-96b4-f42154d82a0b","22","female",10625,8
"propose",0.1,"Morgan","the computer restarted","fd634fdc-20a6-4dfd-96b4-f42154d82a0b","22","female",5496,9
"babble",0.14,"Harper","the egg cracked","fd634fdc-20a6-4dfd-96b4-f42154d82a0b","22","female",5356,10
"dispute",0.5,"Jamie","the airbag deployed","fd634fdc-20a6-4dfd-96b4-f42154d82a0b","22","female",5878,13
"grunt",0.1,"Reese","the balloon popped","fd634fdc-20a6-4dfd-96b4-f42154d82a0b","22","female",45073,14
"state",0.32,"Blake","the room darkened","fd634fdc-20a6-4dfd-96b4-f42154d82a0b","22","female",100874,15
"convey",0.62,"Frankie","the gate opened","3dbc6374-602d-40f0-95b6-dcca29147a30","37","female",6080,3
"indicate",0.72,"Blake","the factory closed","3dbc6374-602d-40f0-95b6-dcca29147a30","37","female",4019,4
"fuss",0.98,"Jamie","the knot tightened","3dbc6374-602d-40f0-95b6-dcca29147a30","37","female",4959,5
"reaffirm",0.6,"Dylan","the paper burned","3dbc6374-602d-40f0-95b6-dcca29147a30","37","female",9900,7
"reply",0.2,"Harper","the bolt loosened","3dbc6374-602d-40f0-95b6-dcca29147a30","37","female",4131,8
"hint",0.52,"Reese","the computer restarted","3dbc6374-602d-40f0-95b6-dcca29147a30","37","female",3716,9
"propose",0.26,"Stevie","the egg cracked","3dbc6374-602d-40f0-95b6-dcca29147a30","37","female",3166,10
"write",0.2,"Morgan","the room darkened","3dbc6374-602d-40f0-95b6-dcca29147a30","37","female",3759,11
"remark",0.22,"Jordan","the balloon popped","3dbc6374-602d-40f0-95b6-dcca29147a30","37","female",2970,12
"prove",0.3,"Charlie","the sauce thickened","3dbc6374-602d-40f0-95b6-dcca29147a30","37","female",3119,14
"challenge",0.82,"Evan","the airbag deployed","3dbc6374-602d-40f0-95b6-dcca29147a30","37","female",3837,15
"concede",-1,"Harper","the computer restarted","05e0b8e1-06b8-4ba1-b4e1-8d45fa894b96","59","female",22452,4
"weep",1,"Evan","the factory closed","05e0b8e1-06b8-4ba1-b4e1-8d45fa894b96","59","female",11954,5
"guarantee",-1,"Charlie","the room darkened","05e0b8e1-06b8-4ba1-b4e1-8d45fa894b96","59","female",11038,7
"discuss",-1,"Jamie","the airbag deployed","05e0b8e1-06b8-4ba1-b4e1-8d45fa894b96","59","female",28150,8
"confide",-1,"Frankie","the knot tightened","05e0b8e1-06b8-4ba1-b4e1-8d45fa894b96","59","female",12799,9
"pretend",-1,"Morgan","the egg cracked","05e0b8e1-06b8-4ba1-b4e1-8d45fa894b96","59","female",21338,10
"fess up",1,"Reese","the balloon popped","05e0b8e1-06b8-4ba1-b4e1-8d45fa894b96","59","female",12905,11
"vow",1,"Blake","the gate opened","05e0b8e1-06b8-4ba1-b4e1-8d45fa894b96","59","female",20892,12
"radio",-1,"Dylan","the bolt loosened","05e0b8e1-06b8-4ba1-b4e1-8d45fa894b96","59","female",12367,13
"reject",1,"Stevie","the paper burned","05e0b8e1-06b8-4ba1-b4e1-8d45fa894b96","59","female",9486,14
"deny",1,"Jordan","the sauce thickened","05e0b8e1-06b8-4ba1-b4e1-8d45fa894b96","59","female",8986,15
"reveal",0.94,"Evan","the room darkened","04f5f176-2bbe-4bc2-9737-25ce62be2e01","50","female",8078,3
"prove",0.66,"Jordan","the computer restarted","04f5f176-2bbe-4bc2-9737-25ce62be2e01","50","female",8174,4
"affirm",0.84,"Stevie","the airbag deployed","04f5f176-2bbe-4bc2-9737-25ce62be2e01","50","female",6616,5
"brag",0.64,"Harper","the knot tightened","04f5f176-2bbe-4bc2-9737-25ce62be2e01","50","female",7655,6
"describe",-0.16,"Dylan","the egg cracked","04f5f176-2bbe-4bc2-9737-25ce62be2e01","50","female",7144,7
"guarantee",-0.36,"Charlie","the factory closed","04f5f176-2bbe-4bc2-9737-25ce62be2e01","50","female",7131,8
"exclaim",0.92,"Reese","the paper burned","04f5f176-2bbe-4bc2-9737-25ce62be2e01","50","female",8783,10
"utter",0.9,"Blake","the balloon popped","04f5f176-2bbe-4bc2-9737-25ce62be2e01","50","female",4480,11
"fess up",1,"Frankie","the gate opened","04f5f176-2bbe-4bc2-9737-25ce62be2e01","50","female",4957,12
"bellow",-0.44,"Jamie","the bolt loosened","04f5f176-2bbe-4bc2-9737-25ce62be2e01","50","female",9787,14
"scoff",-0.74,"Morgan","the sauce thickened","04f5f176-2bbe-4bc2-9737-25ce62be2e01","50","female",8079,15
"grumble",1,"Morgan","the room darkened","4d4582ea-a389-47ec-857d-bf5d8d2927d2","31","female",3748,4
"wager",0.26,"Charlie","the balloon popped","4d4582ea-a389-47ec-857d-bf5d8d2927d2","31","female",7870,5
"prove",-0.4,"Reese","the airbag deployed","4d4582ea-a389-47ec-857d-bf5d8d2927d2","31","female",7433,6
"phone",0.82,"Stevie","the computer restarted","4d4582ea-a389-47ec-857d-bf5d8d2927d2","31","female",7667,7
"fess up",0.4,"Frankie","the bolt loosened","4d4582ea-a389-47ec-857d-bf5d8d2927d2","31","female",3658,8
"comment",0.02,"Dylan","the knot tightened","4d4582ea-a389-47ec-857d-bf5d8d2927d2","31","female",4934,9
"certify",-0.36,"Jamie","the egg cracked","4d4582ea-a389-47ec-857d-bf5d8d2927d2","31","female",3677,10
"type",0.22,"Jordan","the paper burned","4d4582ea-a389-47ec-857d-bf5d8d2927d2","31","female",4187,11
"reaffirm",-0.3,"Harper","the sauce thickened","4d4582ea-a389-47ec-857d-bf5d8d2927d2","31","female",3637,12
"yell",0.54,"Evan","the factory closed","4d4582ea-a389-47ec-857d-bf5d8d2927d2","31","female",6768,14
"say",-0.0600000000000001,"Blake","the gate opened","4d4582ea-a389-47ec-857d-bf5d8d2927d2","31","female",4244,15
"quip",0.82,"Blake","the balloon popped","e4e33394-8e84-404b-97e2-970ad544673e","56","female",9542,3
"proclaim",0.78,"Jamie","the egg cracked","e4e33394-8e84-404b-97e2-970ad544673e","56","female",6325,4
"add",0.88,"Stevie","the sauce thickened","e4e33394-8e84-404b-97e2-970ad544673e","56","female",5786,5
"summarize",0.9,"Evan","the airbag deployed","e4e33394-8e84-404b-97e2-970ad544673e","56","female",5584,6
"testify",-0.08,"Charlie","the knot tightened","e4e33394-8e84-404b-97e2-970ad544673e","56","female",7921,7
"gasp",0.32,"Dylan","the gate opened","e4e33394-8e84-404b-97e2-970ad544673e","56","female",5293,8
"warn",1,"Reese","the factory closed","e4e33394-8e84-404b-97e2-970ad544673e","56","female",7016,11
"promise",-0.1,"Harper","the computer restarted","e4e33394-8e84-404b-97e2-970ad544673e","56","female",8874,12
"narrate",0.3,"Frankie","the bolt loosened","e4e33394-8e84-404b-97e2-970ad544673e","56","female",4990,13
"flaunt",1,"Morgan","the room darkened","e4e33394-8e84-404b-97e2-970ad544673e","56","female",4292,14
"specify",0.0800000000000001,"Jordan","the paper burned","e4e33394-8e84-404b-97e2-970ad544673e","56","female",7922,15
"declare",-0.72,"Morgan","the paper burned","a344da18-d9cb-494b-9f0d-b621a0725ffe","41","male",24817,3
"chatter",-1,"Frankie","the egg cracked","a344da18-d9cb-494b-9f0d-b621a0725ffe","41","male",8685,4
"address",-0.74,"Jamie","the knot tightened","a344da18-d9cb-494b-9f0d-b621a0725ffe","41","male",6464,5
"express",-0.8,"Jordan","the gate opened","a344da18-d9cb-494b-9f0d-b621a0725ffe","41","male",3312,6
"detail",0.86,"Evan","the balloon popped","a344da18-d9cb-494b-9f0d-b621a0725ffe","41","male",6706,7
"think",-0.5,"Stevie","the sauce thickened","a344da18-d9cb-494b-9f0d-b621a0725ffe","41","male",11426,8
"lecture",0.78,"Dylan","the room darkened","a344da18-d9cb-494b-9f0d-b621a0725ffe","41","male",8834,9
"explain",1,"Reese","the computer restarted","a344da18-d9cb-494b-9f0d-b621a0725ffe","41","male",5103,11
"flaunt",1,"Charlie","the factory closed","a344da18-d9cb-494b-9f0d-b621a0725ffe","41","male",5110,12
"argue",1,"Harper","the airbag deployed","a344da18-d9cb-494b-9f0d-b621a0725ffe","41","male",5114,13
"publish",1,"Blake","the bolt loosened","a344da18-d9cb-494b-9f0d-b621a0725ffe","41","male",4406,15
"post",1,"Harper","the factory closed","ec0d29b3-d8ed-43ea-b555-8ea7025164b5","64","female",7212,4
"boast",1,"Morgan","the gate opened","ec0d29b3-d8ed-43ea-b555-8ea7025164b5","64","female",5291,5
"document",1,"Reese","the airbag deployed","ec0d29b3-d8ed-43ea-b555-8ea7025164b5","64","female",5746,6
"howl",0.78,"Jordan","the paper burned","ec0d29b3-d8ed-43ea-b555-8ea7025164b5","64","female",7333,7
"posit",0.72,"Blake","the egg cracked","ec0d29b3-d8ed-43ea-b555-8ea7025164b5","64","female",5802,9
"concede",0,"Evan","the sauce thickened","ec0d29b3-d8ed-43ea-b555-8ea7025164b5","64","female",6343,10
"cry",0.28,"Dylan","the bolt loosened","ec0d29b3-d8ed-43ea-b555-8ea7025164b5","64","female",9683,11
"warrant",0.38,"Jamie","the room darkened","ec0d29b3-d8ed-43ea-b555-8ea7025164b5","64","female",5525,12
"record",1,"Charlie","the balloon popped","ec0d29b3-d8ed-43ea-b555-8ea7025164b5","64","female",4833,13
"challenge",0.9,"Frankie","the computer restarted","ec0d29b3-d8ed-43ea-b555-8ea7025164b5","64","female",7349,14
"broadcast",0.84,"Stevie","the knot tightened","ec0d29b3-d8ed-43ea-b555-8ea7025164b5","64","female",4793,15
"suggest",-0.02,"Harper","the paper burned","ed9c10da-1cb7-4570-a063-cdef46b802c0","31","non-binary",5962,4
"yell",0,"Jamie","the room darkened","ed9c10da-1cb7-4570-a063-cdef46b802c0","31","non-binary",5276,5
"fake",1,"Morgan","the factory closed","ed9c10da-1cb7-4570-a063-cdef46b802c0","31","non-binary",5222,6
"blog",0.02,"Blake","the airbag deployed","ed9c10da-1cb7-4570-a063-cdef46b802c0","31","non-binary",5409,7
"deny",0.02,"Stevie","the sauce thickened","ed9c10da-1cb7-4570-a063-cdef46b802c0","31","non-binary",3920,8
"publish",0.78,"Frankie","the bolt loosened","ed9c10da-1cb7-4570-a063-cdef46b802c0","31","non-binary",6469,9
"confide",0.96,"Jordan","the egg cracked","ed9c10da-1cb7-4570-a063-cdef46b802c0","31","non-binary",5245,11
"submit",-0.02,"Dylan","the knot tightened","ed9c10da-1cb7-4570-a063-cdef46b802c0","31","non-binary",3836,12
"document",0.14,"Reese","the gate opened","ed9c10da-1cb7-4570-a063-cdef46b802c0","31","non-binary",6007,13
"sob",-0.02,"Evan","the balloon popped","ed9c10da-1cb7-4570-a063-cdef46b802c0","31","non-binary",6507,14
"convey",1,"Charlie","the computer restarted","ed9c10da-1cb7-4570-a063-cdef46b802c0","31","non-binary",3794,15
"preach",1,"Morgan","the computer restarted","e6b85b62-a331-4e2a-8cfa-f9e6d576b9fa","34","female",21663,3
"howl",1,"Reese","the bolt loosened","e6b85b62-a331-4e2a-8cfa-f9e6d576b9fa","34","female",7425,4
"question",1,"Harper","the factory closed","e6b85b62-a331-4e2a-8cfa-f9e6d576b9fa","34","female",5663,6
"think",1,"Charlie","the room darkened","e6b85b62-a331-4e2a-8cfa-f9e6d576b9fa","34","female",7000,7
"divulge",1,"Dylan","the egg cracked","e6b85b62-a331-4e2a-8cfa-f9e6d576b9fa","34","female",5974,9
"guarantee",-1,"Jordan","the sauce thickened","e6b85b62-a331-4e2a-8cfa-f9e6d576b9fa","34","female",16914,10
"relate",0.84,"Jamie","the knot tightened","e6b85b62-a331-4e2a-8cfa-f9e6d576b9fa","34","female",4738,11
"confide",1,"Stevie","the airbag deployed","e6b85b62-a331-4e2a-8cfa-f9e6d576b9fa","34","female",5764,12
"express",1,"Frankie","the paper burned","e6b85b62-a331-4e2a-8cfa-f9e6d576b9fa","34","female",5170,13
"concede",-1,"Evan","the balloon popped","e6b85b62-a331-4e2a-8cfa-f9e6d576b9fa","34","female",8536,14
"holler",-1,"Blake","the gate opened","e6b85b62-a331-4e2a-8cfa-f9e6d576b9fa","34","female",6306,15
"gush",1,"Morgan","the knot tightened","f528f703-e4ee-4dee-bd3d-cd4dbe21cf51","48","male",12352,3
"advertise",1,"Reese","the egg cracked","f528f703-e4ee-4dee-bd3d-cd4dbe21cf51","48","male",8171,5
"elaborate",1,"Harper","the sauce thickened","f528f703-e4ee-4dee-bd3d-cd4dbe21cf51","48","male",7071,6
"disclose",1,"Dylan","the room darkened","f528f703-e4ee-4dee-bd3d-cd4dbe21cf51","48","male",8661,7
"scream",1,"Jordan","the gate opened","f528f703-e4ee-4dee-bd3d-cd4dbe21cf51","48","male",5874,8
"record",1,"Charlie","the bolt loosened","f528f703-e4ee-4dee-bd3d-cd4dbe21cf51","48","male",7561,9
"weep",1,"Blake","the airbag deployed","f528f703-e4ee-4dee-bd3d-cd4dbe21cf51","48","male",14869,10
"vow",1,"Stevie","the balloon popped","f528f703-e4ee-4dee-bd3d-cd4dbe21cf51","48","male",11263,12
"scoff",1,"Frankie","the factory closed","f528f703-e4ee-4dee-bd3d-cd4dbe21cf51","48","male",9181,13
"prove",1,"Jamie","the computer restarted","f528f703-e4ee-4dee-bd3d-cd4dbe21cf51","48","male",9720,14
"advise",1,"Evan","the paper burned","f528f703-e4ee-4dee-bd3d-cd4dbe21cf51","48","male",11031,15
"warn",0.0600000000000001,"Jamie","the paper burned","c5295dd0-6076-4e85-a880-4333f88cce90","44","female",12562,4
"maintain",0.7,"Morgan","the factory closed","c5295dd0-6076-4e85-a880-4333f88cce90","44","female",10477,5
"bitch",1,"Charlie","the bolt loosened","c5295dd0-6076-4e85-a880-4333f88cce90","44","female",6887,6
"dispute",0,"Dylan","the egg cracked","c5295dd0-6076-4e85-a880-4333f88cce90","44","female",6798,7
"propose",-0.2,"Blake","the knot tightened","c5295dd0-6076-4e85-a880-4333f88cce90","44","female",13122,8
"quarrel",0.12,"Harper","the sauce thickened","c5295dd0-6076-4e85-a880-4333f88cce90","44","female",10630,10
"howl",0.0600000000000001,"Frankie","the balloon popped","c5295dd0-6076-4e85-a880-4333f88cce90","44","female",9511,11
"show",1,"Jordan","the airbag deployed","c5295dd0-6076-4e85-a880-4333f88cce90","44","female",9032,12
"demonstrate",0.56,"Reese","the room darkened","c5295dd0-6076-4e85-a880-4333f88cce90","44","female",13867,13
"articulate",0.46,"Stevie","the computer restarted","c5295dd0-6076-4e85-a880-4333f88cce90","44","female",8181,14
"grumble",1,"Evan","the gate opened","c5295dd0-6076-4e85-a880-4333f88cce90","44","female",7252,15
"grumble",1,"Dylan","the airbag deployed","3837bbeb-23ed-442c-b561-53a8841cf4b2","46","female",7191,3
"underscore",1,"Reese","the bolt loosened","3837bbeb-23ed-442c-b561-53a8841cf4b2","46","female",7672,4
"dismiss",1,"Jamie","the balloon popped","3837bbeb-23ed-442c-b561-53a8841cf4b2","46","female",5261,5
"brag",1,"Frankie","the room darkened","3837bbeb-23ed-442c-b561-53a8841cf4b2","46","female",4108,6
"certify",1,"Blake","the gate opened","3837bbeb-23ed-442c-b561-53a8841cf4b2","46","female",3717,8
"depict",1,"Jordan","the factory closed","3837bbeb-23ed-442c-b561-53a8841cf4b2","46","female",4962,9
"elaborate",1,"Harper","the sauce thickened","3837bbeb-23ed-442c-b561-53a8841cf4b2","46","female",4949,10
"corroborate",-0.02,"Evan","the egg cracked","3837bbeb-23ed-442c-b561-53a8841cf4b2","46","female",6745,11
"emphasize",1,"Morgan","the knot tightened","3837bbeb-23ed-442c-b561-53a8841cf4b2","46","female",5128,12
"advertise",1,"Stevie","the computer restarted","3837bbeb-23ed-442c-b561-53a8841cf4b2","46","female",4842,13
"swear",0.48,"Charlie","the paper burned","3837bbeb-23ed-442c-b561-53a8841cf4b2","46","female",5851,15
"tweet",-1,"Harper","the room darkened","71970805-3b45-4f7b-b401-5aa0d894628e","39","female",10406,3
"sigh",1,"Evan","the bolt loosened","71970805-3b45-4f7b-b401-5aa0d894628e","39","female",9369,4
"mutter",1,"Dylan","the airbag deployed","71970805-3b45-4f7b-b401-5aa0d894628e","39","female",6826,5
"charge",1,"Frankie","the egg cracked","71970805-3b45-4f7b-b401-5aa0d894628e","39","female",8045,6
"signal",1,"Charlie","the knot tightened","71970805-3b45-4f7b-b401-5aa0d894628e","39","female",13349,7
"gloat",0.96,"Jordan","the factory closed","71970805-3b45-4f7b-b401-5aa0d894628e","39","female",6585,8
"sob",1,"Morgan","the sauce thickened","71970805-3b45-4f7b-b401-5aa0d894628e","39","female",5610,10
"dismiss",1,"Reese","the gate opened","71970805-3b45-4f7b-b401-5aa0d894628e","39","female",8034,11
"circulate",1,"Jamie","the paper burned","71970805-3b45-4f7b-b401-5aa0d894628e","39","female",7203,12
"gasp",1,"Stevie","the balloon popped","71970805-3b45-4f7b-b401-5aa0d894628e","39","female",7387,14
"specify",0,"Blake","the computer restarted","71970805-3b45-4f7b-b401-5aa0d894628e","39","female",7840,15
"assert",-1,"Blake","the balloon popped","d6cad773-e207-4b76-b0ac-d3fe7e5dc28e","28","female",5094,3
"challenge",1,"Stevie","the knot tightened","d6cad773-e207-4b76-b0ac-d3fe7e5dc28e","28","female",6592,5
"howl",-1,"Frankie","the egg cracked","d6cad773-e207-4b76-b0ac-d3fe7e5dc28e","28","female",3921,6
"rave",-1,"Reese","the gate opened","d6cad773-e207-4b76-b0ac-d3fe7e5dc28e","28","female",3482,7
"underscore",-1,"Jordan","the airbag deployed","d6cad773-e207-4b76-b0ac-d3fe7e5dc28e","28","female",3514,8
"summarize",-1,"Harper","the sauce thickened","d6cad773-e207-4b76-b0ac-d3fe7e5dc28e","28","female",4350,9
"propose",-1,"Morgan","the paper burned","d6cad773-e207-4b76-b0ac-d3fe7e5dc28e","28","female",3331,10
"grunt",-1,"Jamie","the factory closed","d6cad773-e207-4b76-b0ac-d3fe7e5dc28e","28","female",4155,11
"display",-1,"Evan","the room darkened","d6cad773-e207-4b76-b0ac-d3fe7e5dc28e","28","female",3328,12
"pout",-1,"Charlie","the bolt loosened","d6cad773-e207-4b76-b0ac-d3fe7e5dc28e","28","female",4191,13
"endorse",-1,"Dylan","the computer restarted","d6cad773-e207-4b76-b0ac-d3fe7e5dc28e","28","female",2676,14
"publish",1,"Blake","the paper burned","fa7190da-f90e-4212-a462-44ff8482f1ce","27","female",4847,3
"mumble",1,"Reese","the bolt loosened","fa7190da-f90e-4212-a462-44ff8482f1ce","27","female",7233,4
"detail",0.98,"Charlie","the airbag deployed","fa7190da-f90e-4212-a462-44ff8482f1ce","27","female",6473,5
"think",1,"Evan","the balloon popped","fa7190da-f90e-4212-a462-44ff8482f1ce","27","female",3852,6
"warrant",0.9,"Stevie","the sauce thickened","fa7190da-f90e-4212-a462-44ff8482f1ce","27","female",5133,7
"indicate",1,"Morgan","the egg cracked","fa7190da-f90e-4212-a462-44ff8482f1ce","27","female",3701,8
"comment",1,"Frankie","the knot tightened","fa7190da-f90e-4212-a462-44ff8482f1ce","27","female",2954,9
"brag",1,"Dylan","the room darkened","fa7190da-f90e-4212-a462-44ff8482f1ce","27","female",3611,11
"contest",1,"Jordan","the computer restarted","fa7190da-f90e-4212-a462-44ff8482f1ce","27","female",3835,13
"quip",1,"Harper","the factory closed","fa7190da-f90e-4212-a462-44ff8482f1ce","27","female",4037,14
"cheer",1,"Jamie","the gate opened","fa7190da-f90e-4212-a462-44ff8482f1ce","27","female",3523,15
"argue",0,"Harper","the knot tightened","3954aee9-a149-4116-8830-51ee964363e1","63","male",9367,3
"underline",0,"Frankie","the gate opened","3954aee9-a149-4116-8830-51ee964363e1","63","male",5151,5
"embellish",1,"Morgan","the airbag deployed","3954aee9-a149-4116-8830-51ee964363e1","63","male",8080,6
"howl",0,"Dylan","the computer restarted","3954aee9-a149-4116-8830-51ee964363e1","63","male",7437,7
"detail",0,"Blake","the factory closed","3954aee9-a149-4116-8830-51ee964363e1","63","male",4384,8
"joke",0,"Evan","the bolt loosened","3954aee9-a149-4116-8830-51ee964363e1","63","male",4151,9
"insist",0,"Charlie","the sauce thickened","3954aee9-a149-4116-8830-51ee964363e1","63","male",5599,10
"mutter",0,"Jamie","the room darkened","3954aee9-a149-4116-8830-51ee964363e1","63","male",4415,11
"gab",0,"Stevie","the egg cracked","3954aee9-a149-4116-8830-51ee964363e1","63","male",4320,12
"retract",0,"Reese","the balloon popped","3954aee9-a149-4116-8830-51ee964363e1","63","male",6472,13
"contend",0,"Jordan","the paper burned","3954aee9-a149-4116-8830-51ee964363e1","63","male",2983,14
"contest",-1,"Blake","the egg cracked","14a3b82f-e21f-46f7-9b5e-eef26ca28548","49","female",10461,3
"convey",-1,"Reese","the knot tightened","14a3b82f-e21f-46f7-9b5e-eef26ca28548","49","female",8035,4
"apologize",1,"Dylan","the airbag deployed","14a3b82f-e21f-46f7-9b5e-eef26ca28548","49","female",6782,5
"email",1,"Charlie","the balloon popped","14a3b82f-e21f-46f7-9b5e-eef26ca28548","49","female",7307,6
"radio",1,"Stevie","the computer restarted","14a3b82f-e21f-46f7-9b5e-eef26ca28548","49","female",7873,7
"record",-1,"Harper","the bolt loosened","14a3b82f-e21f-46f7-9b5e-eef26ca28548","49","female",8795,9
"spout",-1,"Jordan","the gate opened","14a3b82f-e21f-46f7-9b5e-eef26ca28548","49","female",7088,10
"joke",1,"Morgan","the factory closed","14a3b82f-e21f-46f7-9b5e-eef26ca28548","49","female",11245,12
"fess up",1,"Jamie","the room darkened","14a3b82f-e21f-46f7-9b5e-eef26ca28548","49","female",12664,13
"promise",-1,"Evan","the sauce thickened","14a3b82f-e21f-46f7-9b5e-eef26ca28548","49","female",17345,14
"reassert",1,"Frankie","the paper burned","14a3b82f-e21f-46f7-9b5e-eef26ca28548","49","female",12902,15
"mark",1,"Frankie","the factory closed","0c53fd6c-dad2-4d0e-aec4-92a2a54d306f","59","female",7002,3
"think",-0.66,"Blake","the room darkened","0c53fd6c-dad2-4d0e-aec4-92a2a54d306f","59","female",8086,4
"convey",1,"Stevie","the bolt loosened","0c53fd6c-dad2-4d0e-aec4-92a2a54d306f","59","female",5462,5
"mutter",0,"Reese","the paper burned","0c53fd6c-dad2-4d0e-aec4-92a2a54d306f","59","female",11798,6
"gab",0.98,"Dylan","the gate opened","0c53fd6c-dad2-4d0e-aec4-92a2a54d306f","59","female",5998,7
"lecture",0.34,"Harper","the balloon popped","0c53fd6c-dad2-4d0e-aec4-92a2a54d306f","59","female",8511,8
"debate",0.98,"Charlie","the sauce thickened","0c53fd6c-dad2-4d0e-aec4-92a2a54d306f","59","female",5758,10
"assert",-0.92,"Morgan","the airbag deployed","0c53fd6c-dad2-4d0e-aec4-92a2a54d306f","59","female",7646,11
